<?xml version="1.0" encoding="UTF-8" standalone="no"?>
<?xml-stylesheet type="text/xsl" href="define-v1-updated-html.xsl"?><ODM xmlns="http://www.cdisc.org/ns/odm/v1.2" xmlns:def="http://www.cdisc.org/ns/def/v1.0" xmlns:xlink="http://www.w3.org/1999/xlink" xmlns:xsi="http://www.w3.org/2001/XMLSchema-instance" CreationDateTime="2012-03-15T11:09:08" FileOID="CDISCPILOT01" FileType="Snapshot" ODMVersion="1.2" xsi:schemaLocation="http://www.cdisc.org/ns/odm/v1.2 http://www.cdisc.org/schema/def/v1.0/define1-0-0.xsd">
  <Study OID="CDISCPILOT01">
    <GlobalVariables>
      <StudyName>CDISCPILOT01</StudyName>
      <StudyDescription>CDISCPILOT01 Data Definition</StudyDescription>
      <ProtocolName>CDISCPILOT01</ProtocolName>
    </GlobalVariables>
    <MetaDataVersion Description="Study CDISCPILOT01, Data Definitions" Name="Study CDISCPILOT01, Data Definitions" OID="CDISC.SDTMIG.3.1.2" def:DefineVersion="1.0.0" def:StandardName="CDISC SDTM" def:StandardVersion="3.1.2">
      <def:AnnotatedCRF>
        <def:DocumentRef leafID="blankcrf"/>
      </def:AnnotatedCRF>
      <def:leaf ID="blankcrf" xlink:href="blankcrf.pdf">
        <def:title>Annotated Case Report Form</def:title>
      </def:leaf>
      <def:ComputationMethod OID="COMPMETHOD.QSAD_QSSTRESN">Total scores of "ALZHEIMER'S DISEASE ASSESSMENT SCALE" and "NEUROPSYCHIATRIC INVENTORY - REVISED (NPI-X)" were derived as described in the SAP. For all other Test codes: LBSTRESN= LBSTRESC converted to numeric</def:ComputationMethod>
      <def:ComputationMethod OID="COMPMETHOD.STUDY_DAY">(date portion of --DTC) minus (date portion of RFSTDTC) , add 1 if -- DTC &gt;= RFSTDC</def:ComputationMethod>
      <def:ValueListDef OID="ValueList.LB.LBCAT">
        <ItemRef ItemOID="LB.LBCAT.NULL" Mandatory="No" OrderNumber="1"/>
        <ItemRef ItemOID="LB.LBCAT.CHEMISTRY" Mandatory="No" OrderNumber="2"/>
        <ItemRef ItemOID="LB.LBCAT.HEMATOLOGY" Mandatory="No" OrderNumber="3"/>
        <ItemRef ItemOID="LB.LBCAT.OTHER" Mandatory="No" OrderNumber="4"/>
        <ItemRef ItemOID="LB.LBCAT.URINALYSIS" Mandatory="No" OrderNumber="5"/>
      </def:ValueListDef>
      <def:ValueListDef OID="ValueList.LB.LBCAT.CHEMISTRY.LBTESTCD">
        <ItemRef ItemOID="LB.LBCAT.CHEMISTRY.LBTESTCD.ALB" Mandatory="No" OrderNumber="6"/>
        <ItemRef ItemOID="LB.LBCAT.CHEMISTRY.LBTESTCD.ALP" Mandatory="No" OrderNumber="7"/>
        <ItemRef ItemOID="LB.LBCAT.CHEMISTRY.LBTESTCD.ALT" Mandatory="No" OrderNumber="8"/>
        <ItemRef ItemOID="LB.LBCAT.CHEMISTRY.LBTESTCD.AST" Mandatory="No" OrderNumber="9"/>
        <ItemRef ItemOID="LB.LBCAT.CHEMISTRY.LBTESTCD.BILI" Mandatory="No" OrderNumber="10"/>
        <ItemRef ItemOID="LB.LBCAT.CHEMISTRY.LBTESTCD.BUN" Mandatory="No" OrderNumber="11"/>
        <ItemRef ItemOID="LB.LBCAT.CHEMISTRY.LBTESTCD.CA" Mandatory="No" OrderNumber="12"/>
        <ItemRef ItemOID="LB.LBCAT.CHEMISTRY.LBTESTCD.CHOL" Mandatory="No" OrderNumber="13"/>
        <ItemRef ItemOID="LB.LBCAT.CHEMISTRY.LBTESTCD.CK" Mandatory="No" OrderNumber="14"/>
        <ItemRef ItemOID="LB.LBCAT.CHEMISTRY.LBTESTCD.CL" Mandatory="No" OrderNumber="15"/>
        <ItemRef ItemOID="LB.LBCAT.CHEMISTRY.LBTESTCD.CREAT" Mandatory="No" OrderNumber="16"/>
        <ItemRef ItemOID="LB.LBCAT.CHEMISTRY.LBTESTCD.GGT" Mandatory="No" OrderNumber="17"/>
        <ItemRef ItemOID="LB.LBCAT.CHEMISTRY.LBTESTCD.GLUC" Mandatory="No" OrderNumber="18"/>
        <ItemRef ItemOID="LB.LBCAT.CHEMISTRY.LBTESTCD.K" Mandatory="No" OrderNumber="19"/>
        <ItemRef ItemOID="LB.LBCAT.CHEMISTRY.LBTESTCD.PHOS" Mandatory="No" OrderNumber="20"/>
        <ItemRef ItemOID="LB.LBCAT.CHEMISTRY.LBTESTCD.PROT" Mandatory="No" OrderNumber="21"/>
        <ItemRef ItemOID="LB.LBCAT.CHEMISTRY.LBTESTCD.SODIUM" Mandatory="No" OrderNumber="22"/>
        <ItemRef ItemOID="LB.LBCAT.CHEMISTRY.LBTESTCD.URATE" Mandatory="No" OrderNumber="23"/>
      </def:ValueListDef>
      <def:ValueListDef OID="ValueList.LB.LBCAT.HEMATOLOGY.LBTESTCD">
        <ItemRef ItemOID="LB.LBCAT.HEMATOLOGY.LBTESTCD.ANISO" Mandatory="No" OrderNumber="24"/>
        <ItemRef ItemOID="LB.LBCAT.HEMATOLOGY.LBTESTCD.BASO" Mandatory="No" OrderNumber="25"/>
        <ItemRef ItemOID="LB.LBCAT.HEMATOLOGY.LBTESTCD.EOS" Mandatory="No" OrderNumber="26"/>
        <ItemRef ItemOID="LB.LBCAT.HEMATOLOGY.LBTESTCD.HCT" Mandatory="No" OrderNumber="27"/>
        <ItemRef ItemOID="LB.LBCAT.HEMATOLOGY.LBTESTCD.HGB" Mandatory="No" OrderNumber="28"/>
        <ItemRef ItemOID="LB.LBCAT.HEMATOLOGY.LBTESTCD.LYM" Mandatory="No" OrderNumber="29"/>
        <ItemRef ItemOID="LB.LBCAT.HEMATOLOGY.LBTESTCD.MACROCY" Mandatory="No" OrderNumber="30"/>
        <ItemRef ItemOID="LB.LBCAT.HEMATOLOGY.LBTESTCD.MCH" Mandatory="No" OrderNumber="31"/>
        <ItemRef ItemOID="LB.LBCAT.HEMATOLOGY.LBTESTCD.MCHC" Mandatory="No" OrderNumber="32"/>
        <ItemRef ItemOID="LB.LBCAT.HEMATOLOGY.LBTESTCD.MCV" Mandatory="No" OrderNumber="33"/>
        <ItemRef ItemOID="LB.LBCAT.HEMATOLOGY.LBTESTCD.MICROCY" Mandatory="No" OrderNumber="34"/>
        <ItemRef ItemOID="LB.LBCAT.HEMATOLOGY.LBTESTCD.MONO" Mandatory="No" OrderNumber="35"/>
        <ItemRef ItemOID="LB.LBCAT.HEMATOLOGY.LBTESTCD.PLAT" Mandatory="No" OrderNumber="36"/>
        <ItemRef ItemOID="LB.LBCAT.HEMATOLOGY.LBTESTCD.POIKILO" Mandatory="No" OrderNumber="37"/>
        <ItemRef ItemOID="LB.LBCAT.HEMATOLOGY.LBTESTCD.POLYCHR" Mandatory="No" OrderNumber="38"/>
        <ItemRef ItemOID="LB.LBCAT.HEMATOLOGY.LBTESTCD.RBC" Mandatory="No" OrderNumber="39"/>
        <ItemRef ItemOID="LB.LBCAT.HEMATOLOGY.LBTESTCD.WBC" Mandatory="No" OrderNumber="40"/>
      </def:ValueListDef>
      <def:ValueListDef OID="ValueList.LB.LBCAT.NULL.LBTESTCD">
        <ItemRef ItemOID="LB.LBCAT.NULL.LBTESTCD.HBA1C" Mandatory="No" OrderNumber="41"/>
      </def:ValueListDef>
      <def:ValueListDef OID="ValueList.LB.LBCAT.OTHER.LBTESTCD">
        <ItemRef ItemOID="LB.LBCAT.OTHER.LBTESTCD.TSH" Mandatory="No" OrderNumber="42"/>
        <ItemRef ItemOID="LB.LBCAT.OTHER.LBTESTCD.VITB12" Mandatory="No" OrderNumber="43"/>
      </def:ValueListDef>
      <def:ValueListDef OID="ValueList.LB.LBCAT.URINALYSIS.LBTESTCD">
        <ItemRef ItemOID="LB.LBCAT.URINALYSIS.LBTESTCD.COLOR" Mandatory="No" OrderNumber="44"/>
        <ItemRef ItemOID="LB.LBCAT.URINALYSIS.LBTESTCD.KETONES" Mandatory="No" OrderNumber="45"/>
        <ItemRef ItemOID="LB.LBCAT.URINALYSIS.LBTESTCD.PH" Mandatory="No" OrderNumber="46"/>
        <ItemRef ItemOID="LB.LBCAT.URINALYSIS.LBTESTCD.SPGRAV" Mandatory="No" OrderNumber="47"/>
        <ItemRef ItemOID="LB.LBCAT.URINALYSIS.LBTESTCD.UROBIL" Mandatory="No" OrderNumber="48"/>
      </def:ValueListDef>
      <ItemGroupDef IsReferenceData="Yes" Name="TA" OID="TA" Purpose="Tabulation" Repeating="No" def:ArchiveLocationID="Location.TA" def:Class="Trial Design" def:DomainKeys="STUDYID, ARMCD, TAETORD" def:Label="Trial Arms" def:Structure="One record per planned Element per Arm">
        <ItemRef ItemOID="TA.STUDYID" Mandatory="Yes" OrderNumber="1" Role="IDENTIFIER" RoleCodeListOID="ROLES"/>
        <ItemRef ItemOID="TA.DOMAIN" Mandatory="Yes" OrderNumber="2" Role="IDENTIFIER" RoleCodeListOID="ROLES"/>
        <ItemRef ItemOID="TA.ARMCD" Mandatory="Yes" OrderNumber="3" Role="TOPIC" RoleCodeListOID="ROLES"/>
        <ItemRef ItemOID="TA.ARM" Mandatory="Yes" OrderNumber="4" Role="SYNONYM QUALIFIER" RoleCodeListOID="ROLES"/>
        <ItemRef ItemOID="TA.TAETORD" Mandatory="Yes" OrderNumber="5" Role="IDENTIFIER" RoleCodeListOID="ROLES"/>
        <ItemRef ItemOID="TA.ETCD" Mandatory="Yes" OrderNumber="6" Role="RECORD QUALIFIER" RoleCodeListOID="ROLES"/>
        <ItemRef ItemOID="TA.ELEMENT" Mandatory="No" OrderNumber="7" Role="SYNONYM QUALIFIER" RoleCodeListOID="ROLES"/>
        <ItemRef ItemOID="TA.TABRANCH" Mandatory="No" OrderNumber="8" Role="RULE" RoleCodeListOID="ROLES"/>
        <ItemRef ItemOID="TA.TATRANS" Mandatory="No" OrderNumber="9" Role="RULE" RoleCodeListOID="ROLES"/>
        <ItemRef ItemOID="TA.EPOCH" Mandatory="Yes" OrderNumber="10" Role="TIMING" RoleCodeListOID="ROLES"/>
        <def:leaf ID="Location.TA" xlink:href="ta.dsjc">
          <def:title>ta.dsjc </def:title>
        </def:leaf>
      </ItemGroupDef>
      <ItemGroupDef IsReferenceData="No" Name="DM" OID="DM" Purpose="Tabulation" Repeating="No" def:ArchiveLocationID="Location.DM" def:Class="Special Purpose" def:DomainKeys="STUDYID, USUBJID" def:Label="Demographics" def:Structure="One record per subject">
        <ItemRef ItemOID="DM.STUDYID" Mandatory="Yes" OrderNumber="1" Role="IDENTIFIER" RoleCodeListOID="ROLES"/>
        <ItemRef ItemOID="DM.DOMAIN" Mandatory="Yes" OrderNumber="2" Role="IDENTIFIER" RoleCodeListOID="ROLES"/>
        <ItemRef ItemOID="DM.USUBJID" Mandatory="Yes" OrderNumber="3" Role="IDENTIFIER" RoleCodeListOID="ROLES"/>
        <ItemRef ItemOID="DM.SUBJID" Mandatory="Yes" OrderNumber="4" Role="TOPIC" RoleCodeListOID="ROLES"/>
        <ItemRef ItemOID="DM.RFSTDTC" Mandatory="No" OrderNumber="5" Role="RECORD QUALIFIER" RoleCodeListOID="ROLES"/>
        <ItemRef ItemOID="DM.RFENDTC" Mandatory="No" OrderNumber="6" Role="RECORD QUALIFIER" RoleCodeListOID="ROLES"/>
        <ItemRef ItemOID="DM.RFXSTDTC" Mandatory="No" OrderNumber="7" Role="RECORD QUALIFIER" RoleCodeListOID="ROLES"/>
        <ItemRef ItemOID="DM.RFXENDTC" Mandatory="No" OrderNumber="8" Role="RECORD QUALIFIER" RoleCodeListOID="ROLES"/>
        <ItemRef ItemOID="DM.RFICDTC" Mandatory="No" OrderNumber="9" Role="RECORD QUALIFIER" RoleCodeListOID="ROLES"/>
        <ItemRef ItemOID="DM.RFPENDTC" Mandatory="No" OrderNumber="10" Role="RECORD QUALIFIER" RoleCodeListOID="ROLES"/>
        <ItemRef ItemOID="DM.DTHDTC" Mandatory="No" OrderNumber="11" Role="RECORD QUALIFIER" RoleCodeListOID="ROLES"/>
        <ItemRef ItemOID="DM.DTHFL" Mandatory="No" OrderNumber="12" Role="RECORD QUALIFIER" RoleCodeListOID="ROLES"/>
        <ItemRef ItemOID="DM.SITEID" Mandatory="Yes" OrderNumber="13" Role="RECORD QUALIFIER" RoleCodeListOID="ROLES"/>
        <ItemRef ItemOID="DM.AGE" Mandatory="No" OrderNumber="14" Role="RECORD QUALIFIER" RoleCodeListOID="ROLES"/>
        <ItemRef ItemOID="DM.AGEU" Mandatory="No" OrderNumber="15" Role="VARIABLE QUALIFIER" RoleCodeListOID="ROLES"/>
        <ItemRef ItemOID="DM.SEX" Mandatory="Yes" OrderNumber="16" Role="RECORD QUALIFIER" RoleCodeListOID="ROLES"/>
        <ItemRef ItemOID="DM.RACE" Mandatory="No" OrderNumber="17" Role="RECORD QUALIFIER" RoleCodeListOID="ROLES"/>
        <ItemRef ItemOID="DM.ETHNIC" Mandatory="No" OrderNumber="18" Role="RECORD QUALIFIER" RoleCodeListOID="ROLES"/>
        <ItemRef ItemOID="DM.ARMCD" Mandatory="Yes" OrderNumber="19" Role="RECORD QUALIFIER" RoleCodeListOID="ROLES"/>
        <ItemRef ItemOID="DM.ARM" Mandatory="Yes" OrderNumber="20" Role="SYNONYM QUALIFIER" RoleCodeListOID="ROLES"/>
        <ItemRef ItemOID="DM.ACTARMCD" Mandatory="Yes" OrderNumber="21" Role="RECORD QUALIFIER" RoleCodeListOID="ROLES"/>
        <ItemRef ItemOID="DM.ACTARM" Mandatory="Yes" OrderNumber="22" Role="SYNONYM QUALIFIER" RoleCodeListOID="ROLES"/>
        <ItemRef ItemOID="DM.COUNTRY" Mandatory="Yes" OrderNumber="23" Role="RECORD QUALIFIER" RoleCodeListOID="ROLES"/>
        <ItemRef ItemOID="DM.DMDTC" Mandatory="No" OrderNumber="24" Role="TIMING" RoleCodeListOID="ROLES"/>
        <ItemRef ItemOID="DM.DMDY" Mandatory="No" OrderNumber="25" Role="TIMING" RoleCodeListOID="ROLES"/>
        <def:leaf ID="Location.DM" xlink:href="dm.dsjc">
          <def:title>dm.dsjc </def:title>
        </def:leaf>
      </ItemGroupDef>
      <ItemGroupDef IsReferenceData="No" Name="AE" OID="AE" Purpose="Tabulation" Repeating="Yes" def:ArchiveLocationID="Location.AE" def:Class="Events" def:DomainKeys="STUDYID, USUBJID, AETERM, AESTDTC, AESEQ" def:Label="Adverse Events" def:Structure="One record per adverse event per subject">
        <ItemRef ItemOID="AE.STUDYID" Mandatory="Yes" OrderNumber="1" Role="IDENTIFIER" RoleCodeListOID="ROLES"/>
        <ItemRef ItemOID="AE.DOMAIN" Mandatory="Yes" OrderNumber="2" Role="IDENTIFIER" RoleCodeListOID="ROLES"/>
        <ItemRef ItemOID="AE.USUBJID" Mandatory="Yes" OrderNumber="3" Role="IDENTIFIER" RoleCodeListOID="ROLES"/>
        <ItemRef ItemOID="AE.AESEQ" Mandatory="Yes" OrderNumber="4" Role="IDENTIFIER" RoleCodeListOID="ROLES"/>
        <ItemRef ItemOID="AE.AESPID" Mandatory="No" OrderNumber="5" Role="IDENTIFIER" RoleCodeListOID="ROLES"/>
        <ItemRef ItemOID="AE.AETERM" Mandatory="Yes" OrderNumber="6" Role="TOPIC" RoleCodeListOID="ROLES"/>
        <ItemRef ItemOID="AE.AELLT" Mandatory="No" OrderNumber="7" Role="VARIABLE QUALIFIER" RoleCodeListOID="ROLES"/>
        <ItemRef ItemOID="AE.AELLTCD" Mandatory="No" OrderNumber="8" Role="VARIABLE QUALIFIER" RoleCodeListOID="ROLES"/>
        <ItemRef ItemOID="AE.AEDECOD" Mandatory="No" OrderNumber="9" Role="SYNONYM QUALIFIER" RoleCodeListOID="ROLES"/>
        <ItemRef ItemOID="AE.AEPTCD" Mandatory="No" OrderNumber="10" Role="VARIABLE QUALIFIER" RoleCodeListOID="ROLES"/>
        <ItemRef ItemOID="AE.AEHLT" Mandatory="No" OrderNumber="11" Role="VARIABLE QUALIFIER" RoleCodeListOID="ROLES"/>
        <ItemRef ItemOID="AE.AEHLTCD" Mandatory="No" OrderNumber="12" Role="VARIABLE QUALIFIER" RoleCodeListOID="ROLES"/>
        <ItemRef ItemOID="AE.AEHLGT" Mandatory="No" OrderNumber="13" Role="VARIABLE QUALIFIER" RoleCodeListOID="ROLES"/>
        <ItemRef ItemOID="AE.AEHLGTCD" Mandatory="No" OrderNumber="14" Role="VARIABLE QUALIFIER" RoleCodeListOID="ROLES"/>
        <ItemRef ItemOID="AE.AEBODSYS" Mandatory="No" OrderNumber="15" Role="VARIABLE QUALIFIER" RoleCodeListOID="ROLES"/>
        <ItemRef ItemOID="AE.AEBDSYCD" Mandatory="No" OrderNumber="16" Role="VARIABLE QUALIFIER" RoleCodeListOID="ROLES"/>
        <ItemRef ItemOID="AE.AESOC" Mandatory="No" OrderNumber="17" Role="VARIABLE QUALIFIER" RoleCodeListOID="ROLES"/>
        <ItemRef ItemOID="AE.AESOCCD" Mandatory="No" OrderNumber="18" Role="VARIABLE QUALIFIER" RoleCodeListOID="ROLES"/>
        <ItemRef ItemOID="AE.AESEV" Mandatory="No" OrderNumber="19" Role="VARIABLE QUALIFIER" RoleCodeListOID="ROLES"/>
        <ItemRef ItemOID="AE.AESER" Mandatory="No" OrderNumber="20" Role="RECORD QUALIFIER" RoleCodeListOID="ROLES"/>
        <ItemRef ItemOID="AE.AEACN" Mandatory="No" OrderNumber="21" Role="RECORD QUALIFIER" RoleCodeListOID="ROLES"/>
        <ItemRef ItemOID="AE.AEREL" Mandatory="No" OrderNumber="22" Role="RECORD QUALIFIER" RoleCodeListOID="ROLES"/>
        <ItemRef ItemOID="AE.AEOUT" Mandatory="No" OrderNumber="23" Role="RECORD QUALIFIER" RoleCodeListOID="ROLES"/>
        <ItemRef ItemOID="AE.AESCAN" Mandatory="No" OrderNumber="24" Role="RECORD QUALIFIER" RoleCodeListOID="ROLES"/>
        <ItemRef ItemOID="AE.AESCONG" Mandatory="No" OrderNumber="25" Role="RECORD QUALIFIER" RoleCodeListOID="ROLES"/>
        <ItemRef ItemOID="AE.AESDISAB" Mandatory="No" OrderNumber="26" Role="RECORD QUALIFIER" RoleCodeListOID="ROLES"/>
        <ItemRef ItemOID="AE.AESDTH" Mandatory="No" OrderNumber="27" Role="RECORD QUALIFIER" RoleCodeListOID="ROLES"/>
        <ItemRef ItemOID="AE.AESHOSP" Mandatory="No" OrderNumber="28" Role="RECORD QUALIFIER" RoleCodeListOID="ROLES"/>
        <ItemRef ItemOID="AE.AESLIFE" Mandatory="No" OrderNumber="29" Role="RECORD QUALIFIER" RoleCodeListOID="ROLES"/>
        <ItemRef ItemOID="AE.AESOD" Mandatory="No" OrderNumber="30" Role="RECORD QUALIFIER" RoleCodeListOID="ROLES"/>
        <ItemRef ItemOID="AE.AEDTC" Mandatory="No" OrderNumber="31" Role="TIMING" RoleCodeListOID="ROLES"/>
        <ItemRef ItemOID="AE.AESTDTC" Mandatory="No" OrderNumber="32" Role="TIMING" RoleCodeListOID="ROLES"/>
        <ItemRef ItemOID="AE.AEENDTC" Mandatory="No" OrderNumber="33" Role="TIMING" RoleCodeListOID="ROLES"/>
        <ItemRef ItemOID="AE.AESTDY" Mandatory="No" OrderNumber="34" Role="TIMING" RoleCodeListOID="ROLES"/>
        <ItemRef ItemOID="AE.AEENDY" Mandatory="No" OrderNumber="35" Role="TIMING" RoleCodeListOID="ROLES"/>
        <def:leaf ID="Location.AE" xlink:href="ae.dsjc">
          <def:title>ae.dsjc </def:title>
        </def:leaf>
      </ItemGroupDef>
      <ItemGroupDef IsReferenceData="No" Name="DS" OID="DS" Purpose="Tabulation" Repeating="Yes" def:ArchiveLocationID="Location.DS" def:Class="Events" def:DomainKeys="STUDYID, USUBJID, DSDECOD, DSSTDTC" def:Label="Disposition" def:Structure="One record per disposition status or protocol milestone per subject">
        <ItemRef ItemOID="DS.STUDYID" Mandatory="Yes" OrderNumber="1" Role="IDENTIFIER" RoleCodeListOID="ROLES"/>
        <ItemRef ItemOID="DS.DOMAIN" Mandatory="Yes" OrderNumber="2" Role="IDENTIFIER" RoleCodeListOID="ROLES"/>
        <ItemRef ItemOID="DS.USUBJID" Mandatory="Yes" OrderNumber="3" Role="IDENTIFIER" RoleCodeListOID="ROLES"/>
        <ItemRef ItemOID="DS.DSSEQ" Mandatory="Yes" OrderNumber="4" Role="IDENTIFIER" RoleCodeListOID="ROLES"/>
        <ItemRef ItemOID="DS.DSSPID" Mandatory="No" OrderNumber="5" Role="IDENTIFIER" RoleCodeListOID="ROLES"/>
        <ItemRef ItemOID="DS.DSTERM" Mandatory="Yes" OrderNumber="6" Role="TOPIC" RoleCodeListOID="ROLES"/>
        <ItemRef ItemOID="DS.DSDECOD" Mandatory="Yes" OrderNumber="7" Role="SYNONYM QUALIFIER" RoleCodeListOID="ROLES"/>
        <ItemRef ItemOID="DS.DSCAT" Mandatory="No" OrderNumber="8" Role="GROUPING QUALIFIER" RoleCodeListOID="ROLES"/>
        <ItemRef ItemOID="DS.VISITNUM" Mandatory="No" OrderNumber="9" Role="TIMING" RoleCodeListOID="ROLES"/>
        <ItemRef ItemOID="DS.VISIT" Mandatory="No" OrderNumber="10" Role="TIMING" RoleCodeListOID="ROLES"/>
        <ItemRef ItemOID="DS.DSDTC" Mandatory="No" OrderNumber="11" Role="TIMING" RoleCodeListOID="ROLES"/>
        <ItemRef ItemOID="DS.DSSTDTC" Mandatory="No" OrderNumber="12" Role="TIMING" RoleCodeListOID="ROLES"/>
        <ItemRef ItemOID="DS.DSSTDY" Mandatory="No" OrderNumber="13" Role="TIMING" RoleCodeListOID="ROLES"/>
        <def:leaf ID="Location.DS" xlink:href="ds.dsjc">
          <def:title>ds.dsjc </def:title>
        </def:leaf>
      </ItemGroupDef>
      <ItemGroupDef IsReferenceData="No" Name="LB" OID="LB" Purpose="Tabulation" Repeating="Yes" def:ArchiveLocationID="Location.LB" def:Class="Findings" def:DomainKeys="STUDYID, USUBJID, LBTESTCD, VISITNUM" def:Label="Laboratory Tests Results" def:Structure="One record per analyte per planned time point number per time point reference per visit per subject">
        <ItemRef ItemOID="LB.STUDYID" Mandatory="Yes" OrderNumber="1" Role="IDENTIFIER" RoleCodeListOID="ROLES"/>
        <ItemRef ItemOID="LB.DOMAIN" Mandatory="Yes" OrderNumber="2" Role="IDENTIFIER" RoleCodeListOID="ROLES"/>
        <ItemRef ItemOID="LB.USUBJID" Mandatory="Yes" OrderNumber="3" Role="IDENTIFIER" RoleCodeListOID="ROLES"/>
        <ItemRef ItemOID="LB.LBSEQ" Mandatory="Yes" OrderNumber="4" Role="IDENTIFIER" RoleCodeListOID="ROLES"/>
        <ItemRef ItemOID="LB.LBTESTCD" Mandatory="Yes" OrderNumber="5" Role="TOPIC" RoleCodeListOID="ROLES"/>
        <ItemRef ItemOID="LB.LBTEST" Mandatory="Yes" OrderNumber="6" Role="SYNONYM QUALIFIER" RoleCodeListOID="ROLES"/>
        <ItemRef ItemOID="LB.LBCAT" Mandatory="No" OrderNumber="7" Role="GROUPING QUALIFIER" RoleCodeListOID="ROLES"/>
        <ItemRef ItemOID="LB.LBORRES" Mandatory="No" OrderNumber="8" Role="RESULT QUALIFIER" RoleCodeListOID="ROLES"/>
        <ItemRef ItemOID="LB.LBORRESU" Mandatory="No" OrderNumber="9" Role="VARIABLE QUALIFIER" RoleCodeListOID="ROLES"/>
        <ItemRef ItemOID="LB.LBORNRLO" Mandatory="No" OrderNumber="10" Role="VARIABLE QUALIFIER" RoleCodeListOID="ROLES"/>
        <ItemRef ItemOID="LB.LBORNRHI" Mandatory="No" OrderNumber="11" Role="VARIABLE QUALIFIER" RoleCodeListOID="ROLES"/>
        <ItemRef ItemOID="LB.LBSTRESC" Mandatory="No" OrderNumber="12" Role="RESULT QUALIFIER" RoleCodeListOID="ROLES"/>
        <ItemRef ItemOID="LB.LBSTRESN" Mandatory="No" OrderNumber="13" Role="RESULT QUALIFIER" RoleCodeListOID="ROLES"/>
        <ItemRef ItemOID="LB.LBSTRESU" Mandatory="No" OrderNumber="14" Role="VARIABLE QUALIFIER" RoleCodeListOID="ROLES"/>
        <ItemRef ItemOID="LB.LBSTNRLO" Mandatory="No" OrderNumber="15" Role="VARIABLE QUALIFIER" RoleCodeListOID="ROLES"/>
        <ItemRef ItemOID="LB.LBSTNRHI" Mandatory="No" OrderNumber="16" Role="VARIABLE QUALIFIER" RoleCodeListOID="ROLES"/>
        <ItemRef ItemOID="LB.LBNRIND" Mandatory="No" OrderNumber="17" Role="VARIABLE QUALIFIER" RoleCodeListOID="ROLES"/>
        <ItemRef ItemOID="LB.LBBLFL" Mandatory="No" OrderNumber="18" Role="RECORD QUALIFIER" RoleCodeListOID="ROLES"/>
        <ItemRef ItemOID="LB.VISITNUM" Mandatory="No" OrderNumber="19" Role="TIMING" RoleCodeListOID="ROLES"/>
        <ItemRef ItemOID="LB.VISIT" Mandatory="No" OrderNumber="20" Role="TIMING" RoleCodeListOID="ROLES"/>
        <ItemRef ItemOID="LB.VISITDY" Mandatory="No" OrderNumber="21" Role="TIMING" RoleCodeListOID="ROLES"/>
        <ItemRef ItemOID="LB.LBDTC" Mandatory="No" OrderNumber="22" Role="TIMING" RoleCodeListOID="ROLES"/>
        <ItemRef ItemOID="LB.LBDY" Mandatory="No" OrderNumber="23" Role="TIMING" RoleCodeListOID="ROLES"/>
        <def:leaf ID="Location.LB" xlink:href="lb.dsjc">
          <def:title>lb.dsjc </def:title>
        </def:leaf>
      </ItemGroupDef>
      <ItemGroupDef IsReferenceData="No" Name="RELREC" OID="RELREC" Purpose="Tabulation" Repeating="Yes" def:ArchiveLocationID="Location.RELREC" def:Class="Relationship" def:DomainKeys="STUDYID, RDOMAIN, USUBJID, IDVAR, IDVARVAL, RELID, RELTYPE" def:Label="Related Records" def:Structure="One record per related record, group of records or datasets">
        <ItemRef ItemOID="RELREC.STUDYID" Mandatory="Yes" OrderNumber="1" Role="IDENTIFIER" RoleCodeListOID="ROLES"/>
        <ItemRef ItemOID="RELREC.RDOMAIN" Mandatory="Yes" OrderNumber="2" Role="IDENTIFIER" RoleCodeListOID="ROLES"/>
        <ItemRef ItemOID="RELREC.USUBJID" Mandatory="No" OrderNumber="3" Role="IDENTIFIER" RoleCodeListOID="ROLES"/>
        <ItemRef ItemOID="RELREC.IDVAR" Mandatory="Yes" OrderNumber="4" Role="IDENTIFIER" RoleCodeListOID="ROLES"/>
        <ItemRef ItemOID="RELREC.IDVARVAL" Mandatory="No" OrderNumber="5" Role="IDENTIFIER" RoleCodeListOID="ROLES"/>
        <ItemRef ItemOID="RELREC.RELTYPE" Mandatory="No" OrderNumber="6" Role="RESULT QUALIFIER" RoleCodeListOID="ROLES"/>
        <ItemRef ItemOID="RELREC.RELID" Mandatory="Yes" OrderNumber="7" Role="TOPIC" RoleCodeListOID="ROLES"/>
        <def:leaf ID="Location.RELREC" xlink:href="relrec.dsjc">
          <def:title>relrec.dsjc </def:title>
        </def:leaf>
      </ItemGroupDef>
      <ItemDef Comment=" " DataType="text" Length="12" Name="STUDYID" OID="AE.STUDYID" Origin="CRF Page 7" def:Label="Study Identifier"/>
      <ItemDef Comment=" " DataType="text" Length="2" Name="DOMAIN" OID="AE.DOMAIN" Origin="Assigned" def:Label="Domain Abbreviation"/>
      <ItemDef Comment="Concatenation of STUDYID, DM.SITEID and DM.SUBJID" DataType="text" Length="11" Name="USUBJID" OID="AE.USUBJID" Origin="Derived" def:Label="Unique Subject Identifier"/>
      <ItemDef Comment="Sequential number identifying records within each USUBJID" DataType="integer" Length="8" Name="AESEQ" OID="AE.AESEQ" Origin="Derived" def:Label="Sequence Number"/>
      <ItemDef Comment=" " DataType="text" Length="3" Name="AESPID" OID="AE.AESPID" Origin="CRF Page 121, 122, 123" def:Label="Sponsor-Defined Identifier"/>
      <ItemDef Comment=" " DataType="text" Length="200" Name="AETERM" OID="AE.AETERM" Origin="CRF Page 121, 122, 123" def:Label="Reported Term for the Adverse Event"/>
      <ItemDef Comment=" " DataType="text" Length="100" Name="AELLT" OID="AE.AELLT" Origin="Assigned" def:Label="Lowest Level Term">
        <CodeListRef CodeListOID="AEDICT"/>
      </ItemDef>
      <ItemDef Comment=" " DataType="integer" Length="8" Name="AELLTCD" OID="AE.AELLTCD" Origin="Assigned" def:Label="Lowest Level Term Code"/>
      <ItemDef Comment=" " DataType="text" Length="200" Name="AEDECOD" OID="AE.AEDECOD" Origin="Assigned" def:Label="Dictionary-Derived Term">
        <CodeListRef CodeListOID="AEDICT"/>
      </ItemDef>
      <ItemDef Comment=" " DataType="integer" Length="8" Name="AEPTCD" OID="AE.AEPTCD" Origin="Assigned" def:Label="Preferred Term Code"/>
      <ItemDef Comment=" " DataType="text" Length="100" Name="AEHLT" OID="AE.AEHLT" Origin="Assigned" def:Label="High Level Term">
        <CodeListRef CodeListOID="AEDICT"/>
      </ItemDef>
      <ItemDef Comment=" " DataType="integer" Length="8" Name="AEHLTCD" OID="AE.AEHLTCD" Origin="Assigned" def:Label="High Level Term Code"/>
      <ItemDef Comment=" " DataType="text" Length="100" Name="AEHLGT" OID="AE.AEHLGT" Origin="Assigned" def:Label="High Level Group Term">
        <CodeListRef CodeListOID="AEDICT"/>
      </ItemDef>
      <ItemDef Comment=" " DataType="integer" Length="8" Name="AEHLGTCD" OID="AE.AEHLGTCD" Origin="Assigned" def:Label="High Level Group Term Code"/>
      <ItemDef Comment=" " DataType="text" Length="67" Name="AEBODSYS" OID="AE.AEBODSYS" Origin="Assigned" def:Label="Body System or Organ Class">
        <CodeListRef CodeListOID="AEDICT"/>
      </ItemDef>
      <ItemDef Comment=" " DataType="integer" Length="8" Name="AEBDSYCD" OID="AE.AEBDSYCD" Origin="Assigned" def:Label="Body System or Organ Class Code"/>
      <ItemDef Comment=" " DataType="text" Length="100" Name="AESOC" OID="AE.AESOC" Origin="Assigned" def:Label="Primary System Organ Class">
        <CodeListRef CodeListOID="AEDICT"/>
      </ItemDef>
      <ItemDef Comment=" " DataType="integer" Length="8" Name="AESOCCD" OID="AE.AESOCCD" Origin="Assigned" def:Label="Primary System Organ Class Code"/>
      <ItemDef Comment=" " DataType="text" Length="8" Name="AESEV" OID="AE.AESEV" Origin="CRF Page 121, 122, 123" def:Label="Severity/Intensity">
        <CodeListRef CodeListOID="SEV"/>
      </ItemDef>
      <ItemDef Comment=" " DataType="text" Length="1" Name="AESER" OID="AE.AESER" Origin="CRF Page 121, 122, 123" def:Label="Serious Event">
        <CodeListRef CodeListOID="YN"/>
      </ItemDef>
      <ItemDef Comment="AEACN=Null (data on action taken concerning study treatment was not collected)" DataType="text" Length="30" Name="AEACN" OID="AE.AEACN" Origin="Derived" def:Label="Action Taken with Study Treatment"/>
      <ItemDef Comment=" " DataType="text" Length="8" Name="AEREL" OID="AE.AEREL" Origin="CRF Page 121, 122, 123" def:Label="Causality">
        <CodeListRef CodeListOID="AECAUS"/>
      </ItemDef>
      <ItemDef Comment=" " DataType="text" Length="200" Name="AEOUT" OID="AE.AEOUT" Origin="CRF Page 121, 122, 123" def:Label="Outcome of Adverse Event">
        <CodeListRef CodeListOID="OUT"/>
      </ItemDef>
      <ItemDef Comment=" " DataType="text" Length="1" Name="AESCAN" OID="AE.AESCAN" Origin="CRF Page 121, 122, 123" def:Label="Involves Cancer">
        <CodeListRef CodeListOID="YN"/>
      </ItemDef>
      <ItemDef Comment=" " DataType="text" Length="1" Name="AESCONG" OID="AE.AESCONG" Origin="CRF Page 121, 122, 123" def:Label="Congenital Anomaly or Birth Defect">
        <CodeListRef CodeListOID="YN"/>
      </ItemDef>
      <ItemDef Comment=" " DataType="text" Length="1" Name="AESDISAB" OID="AE.AESDISAB" Origin="CRF Page 121, 122, 123" def:Label="Persist or Signif Disability/Incapacity">
        <CodeListRef CodeListOID="YN"/>
      </ItemDef>
      <ItemDef Comment=" " DataType="text" Length="1" Name="AESDTH" OID="AE.AESDTH" Origin="CRF Page 121, 122, 123" def:Label="Results in Death">
        <CodeListRef CodeListOID="YN"/>
      </ItemDef>
      <ItemDef Comment=" " DataType="text" Length="1" Name="AESHOSP" OID="AE.AESHOSP" Origin="CRF Page 121, 122, 123" def:Label="Requires or Prolongs Hospitalization">
        <CodeListRef CodeListOID="YN"/>
      </ItemDef>
      <ItemDef Comment=" " DataType="text" Length="1" Name="AESLIFE" OID="AE.AESLIFE" Origin="CRF Page 121, 122, 123" def:Label="Is Life Threatening">
        <CodeListRef CodeListOID="YN"/>
      </ItemDef>
      <ItemDef Comment=" " DataType="text" Length="1" Name="AESOD" OID="AE.AESOD" Origin="CRF Page 121, 122, 123" def:Label="Occurred with Overdose">
        <CodeListRef CodeListOID="YN"/>
      </ItemDef>
      <ItemDef Comment="Date of final visit (SV)" DataType="date" Length="10" Name="AEDTC" OID="AE.AEDTC" Origin="Derived" def:Label="Date/Time of Collection"/>
      <ItemDef Comment=" " DataType="date" Length="10" Name="AESTDTC" OID="AE.AESTDTC" Origin="CRF Page 121, 122, 123" def:Label="Start Date/Time of Adverse Event"/>
      <ItemDef Comment=" " DataType="date" Length="10" Name="AEENDTC" OID="AE.AEENDTC" Origin="CRF Page 121, 122, 123" def:Label="End Date/Time of Adverse Event"/>
      <ItemDef DataType="integer" Length="8" Name="AESTDY" OID="AE.AESTDY" Origin="Derived" def:ComputationMethodOID="COMPMETHOD.STUDY_DAY" def:Label="Study Day of Start of Adverse Event"/>
      <ItemDef DataType="integer" Length="8" Name="AEENDY" OID="AE.AEENDY" Origin="Derived" def:ComputationMethodOID="COMPMETHOD.STUDY_DAY" def:Label="Study Day of End of Adverse Event"/>
      <ItemDef Comment=" " DataType="text" Length="12" Name="STUDYID" OID="DM.STUDYID" Origin="CRF Page 7" def:Label="Study Identifier"/>
      <ItemDef Comment=" " DataType="text" Length="2" Name="DOMAIN" OID="DM.DOMAIN" Origin="Assigned" def:Label="Domain Abbreviation"/>
      <ItemDef Comment="Concatenation of STUDYID, DM.SITEID and DM.SUBJID" DataType="text" Length="11" Name="USUBJID" OID="DM.USUBJID" Origin="Derived" def:Label="Unique Subject Identifier"/>
      <ItemDef Comment=" " DataType="text" Length="4" Name="SUBJID" OID="DM.SUBJID" Origin="CRF Page 7" def:Label="Subject Identifier for the Study"/>
      <ItemDef Comment="Date/time of first study drug treatment derived from EX" DataType="date" Length="10" Name="RFSTDTC" OID="DM.RFSTDTC" Origin="Derived" def:Label="Subject Reference Start Date/Time"/>
      <ItemDef Comment="Date/time of last study drug treatment derived from EX" DataType="date" Length="10" Name="RFENDTC" OID="DM.RFENDTC" Origin="Derived" def:Label="Subject Reference End Date/Time"/>
      <ItemDef Comment="RFXSTDTC=RFSTDTC" DataType="datetime" Length="20" Name="RFXSTDTC" OID="DM.RFXSTDTC" Origin="Derived" def:Label="Date/Time of First Study Treatment"/>
      <ItemDef Comment="RFXENDTC=RFENDTC" DataType="datetime" Length="20" Name="RFXENDTC" OID="DM.RFXENDTC" Origin="Derived" def:Label="Date/Time of Last Study Treatment"/>
      <ItemDef Comment="Date of informed consent was not entered in database (see annotated CRF)" DataType="datetime" Length="20" Name="RFICDTC" OID="DM.RFICDTC" Origin="Derived" def:Label="Date/Time of Informed Consent"/>
      <ItemDef Comment="DSSTDTC of last disposition event" DataType="datetime" Length="20" Name="RFPENDTC" OID="DM.RFPENDTC" Origin="Derived" def:Label="Date/Time of End of Participation"/>
      <ItemDef Comment="If DS record exists with DSDECOD=&quot;DEATH&quot; then DTHDTC=AEENDTC." DataType="datetime" Length="20" Name="DTHDTC" OID="DM.DTHDTC" Origin="Derived" def:Label="Date/Time of Death"/>
      <ItemDef Comment="If DS record exists with DSDECOD=&quot;DEATH&quot; then DEATHFL=Y." DataType="text" Length="1" Name="DTHFL" OID="DM.DTHFL" Origin="Derived" def:Label="Subject Death Flag">
        <CodeListRef CodeListOID="Y_BLANK"/>
      </ItemDef>
      <ItemDef Comment=" " DataType="text" Length="3" Name="SITEID" OID="DM.SITEID" Origin="Assigned" def:Label="Study Site Identifier"/>
      <ItemDef Comment="Subject's Age at start of study drug (RFSTDTC)." DataType="integer" Length="8" Name="AGE" OID="DM.AGE" Origin="Derived" def:Label="Age"/>
      <ItemDef Comment="AGEU=&quot;YEARS&quot;" DataType="text" Length="6" Name="AGEU" OID="DM.AGEU" Origin="Assigned" def:Label="Age Units">
        <CodeListRef CodeListOID="AGEU"/>
      </ItemDef>
      <ItemDef Comment=" " DataType="text" Length="1" Name="SEX" OID="DM.SEX" Origin="CRF Page 7" def:Label="Sex">
        <CodeListRef CodeListOID="SEX"/>
      </ItemDef>
      <ItemDef Comment=" " DataType="text" Length="78" Name="RACE" OID="DM.RACE" Origin="CRF Page 7" def:Label="Race">
        <CodeListRef CodeListOID="RACE"/>
      </ItemDef>
      <ItemDef Comment="Derived from Origin entered on CRF: ETHINC=&quot;HISPANIC OR LATINO&quot; if Origin=&quot;Hispanic&quot;. Otherwise ETHNIC=&quot;NOT HISPANIC OR LATINO&quot;" DataType="text" Length="25" Name="ETHNIC" OID="DM.ETHNIC" Origin="Derived" def:Label="Ethnicity">
        <CodeListRef CodeListOID="ETHNIC"/>
      </ItemDef>
      <ItemDef Comment="According to randomization list" DataType="text" Length="8" Name="ARMCD" OID="DM.ARMCD" Origin="Assigned" def:Label="Planned Arm Code">
        <CodeListRef CodeListOID="ARMCD"/>
      </ItemDef>
      <ItemDef Comment="According to randomization list" DataType="text" Length="20" Name="ARM" OID="DM.ARM" Origin="Assigned" def:Label="Description of Planned Arm">
        <CodeListRef CodeListOID="ARM"/>
      </ItemDef>
      <ItemDef Comment="Derived from EX" DataType="text" Length="8" Name="ACTARMCD" OID="DM.ACTARMCD" Origin="Derived" def:Label="Actual Arm Code">
        <CodeListRef CodeListOID="ARMCD"/>
      </ItemDef>
      <ItemDef Comment="Derived from EX" DataType="text" Length="20" Name="ACTARM" OID="DM.ACTARM" Origin="Derived" def:Label="Description of Actual Arm">
        <CodeListRef CodeListOID="ARM"/>
      </ItemDef>
      <ItemDef Comment="Derived from site information" DataType="text" Length="3" Name="COUNTRY" OID="DM.COUNTRY" Origin="Derived" def:Label="Country">
        <CodeListRef CodeListOID="COUNTRY"/>
      </ItemDef>
      <ItemDef Comment=" " DataType="date" Length="10" Name="DMDTC" OID="DM.DMDTC" Origin="CRF Page 7" def:Label="Date/Time of Collection"/>
      <ItemDef DataType="integer" Length="8" Name="DMDY" OID="DM.DMDY" Origin="Derived" def:ComputationMethodOID="COMPMETHOD.STUDY_DAY" def:Label="Study Day of Collection"/>
      <ItemDef Comment=" " DataType="text" Length="12" Name="STUDYID" OID="DS.STUDYID" Origin="CRF Page 7" def:Label="Study Identifier"/>
      <ItemDef Comment=" " DataType="text" Length="2" Name="DOMAIN" OID="DS.DOMAIN" Origin="Assigned" def:Label="Domain Abbreviation"/>
      <ItemDef Comment="Concatenation of STUDYID, DM.SITEID and DM.SUBJID" DataType="text" Length="11" Name="USUBJID" OID="DS.USUBJID" Origin="Derived" def:Label="Unique Subject Identifier"/>
      <ItemDef Comment="Sequential number identifying records within each USUBJID" DataType="integer" Length="8" Name="DSSEQ" OID="DS.DSSEQ" Origin="Derived" def:Label="Sequence Number"/>
      <ItemDef Comment=" " DataType="text" Length="2" Name="DSSPID" OID="DS.DSSPID" Origin="Assigned" def:Label="Sponsor-Defined Identifier"/>
      <ItemDef Comment=" " DataType="text" Length="63" Name="DSTERM" OID="DS.DSTERM" Origin="CRF Page 106, 139" def:Label="Reported Term for the Disposition Event"/>
      <ItemDef Comment=" " DataType="text" Length="63" Name="DSDECOD" OID="DS.DSDECOD" Origin="CRF Page 106, 139" def:Label="Standardized Disposition Term">
        <CodeListRef CodeListOID="DISCCD"/>
      </ItemDef>
      <ItemDef Comment=" " DataType="text" Length="17" Name="DSCAT" OID="DS.DSCAT" Origin="Assigned" def:Label="Category for Disposition Event">
        <CodeListRef CodeListOID="DSCAT"/>
      </ItemDef>
      <ItemDef Comment=" " DataType="float" Length="8" Name="VISITNUM" OID="DS.VISITNUM" Origin="CRF Page 106, 139" SignificantDigits="1" def:DisplayFormat="8.1" def:Label="Visit Number">
        <CodeListRef CodeListOID="VISITNUM"/>
      </ItemDef>
      <ItemDef Comment=" " DataType="text" Length="19" Name="VISIT" OID="DS.VISIT" Origin="CRF Page 106, 139" def:Label="Visit Name">
        <CodeListRef CodeListOID="VISIT"/>
      </ItemDef>
      <ItemDef Comment=" " DataType="datetime" Length="19" Name="DSDTC" OID="DS.DSDTC" Origin="CRF Page 106, 139" def:Label="Date/Time of Collection"/>
      <ItemDef Comment=" " DataType="date" Length="10" Name="DSSTDTC" OID="DS.DSSTDTC" Origin="CRF Page 106, 139" def:Label="Start Date/Time of Disposition Event"/>
      <ItemDef DataType="integer" Length="8" Name="DSSTDY" OID="DS.DSSTDY" Origin="Derived" def:ComputationMethodOID="COMPMETHOD.STUDY_DAY" def:Label="Study Day of Start of Disposition Event"/>
      <ItemDef Comment=" " DataType="text" Length="12" Name="STUDYID" OID="LB.STUDYID" Origin="CRF Page 7" def:Label="Study Identifier"/>
      <ItemDef Comment=" " DataType="text" Length="2" Name="DOMAIN" OID="LB.DOMAIN" Origin="Assigned" def:Label="Domain Abbreviation"/>
      <ItemDef Comment="Concatenation of STUDYID, DM.SITEID and DM.SUBJID" DataType="text" Length="11" Name="USUBJID" OID="LB.USUBJID" Origin="Derived" def:Label="Unique Subject Identifier"/>
      <ItemDef Comment="Sequential number identifying records within each USUBJID" DataType="integer" Length="8" Name="LBSEQ" OID="LB.LBSEQ" Origin="Derived" def:Label="Sequence Number"/>
      <ItemDef Comment=" " DataType="text" Length="7" Name="LBTESTCD" OID="LB.LBTESTCD" Origin="eDT" def:Label="Lab Test or Examination Short Name"/>
      <ItemDef Comment=" " DataType="text" Length="200" Name="LBTEST" OID="LB.LBTEST" Origin="eDT" def:Label="Lab Test or Examination Name"/>
      <ItemDef Comment=" " DataType="text" Length="10" Name="LBCAT" OID="LB.LBCAT" Origin="eDT" def:Label="Category for Lab Test">
        <CodeListRef CodeListOID="LBCAT"/>
        <def:ValueListRef ValueListOID="ValueList.LB.LBCAT"/>
      </ItemDef>
      <ItemDef Comment=" " DataType="text" Length="5" Name="LBORRES" OID="LB.LBORRES" Origin="eDT" def:Label="Result or Finding in Original Units"/>
      <ItemDef Comment=" " DataType="text" Length="8" Name="LBORRESU" OID="LB.LBORRESU" Origin="eDT" def:Label="Original Units"/>
      <ItemDef Comment=" " DataType="text" Length="5" Name="LBORNRLO" OID="LB.LBORNRLO" Origin="eDT" def:Label="Reference Range Lower Limit in Orig Unit"/>
      <ItemDef Comment=" " DataType="text" Length="7" Name="LBORNRHI" OID="LB.LBORNRHI" Origin="eDT" def:Label="Reference Range Upper Limit in Orig Unit"/>
      <ItemDef Comment="LBORRES converted to standard unit (LBSTRESU)" DataType="text" Length="8" Name="LBSTRESC" OID="LB.LBSTRESC" Origin="Derived" def:Label="Character Result/Finding in Std Format"/>
      <ItemDef Comment="LBSTRESC converted to numeric" DataType="integer" Length="8" Name="LBSTRESN" OID="LB.LBSTRESN" Origin="Derived" def:Label="Numeric Result/Finding in Standard Units"/>
      <ItemDef Comment="Standard unit per parameter assigned for summarizing analyses" DataType="text" Length="8" Name="LBSTRESU" OID="LB.LBSTRESU" Origin="Assigned" def:Label="Standard Units">
        <CodeListRef CodeListOID="LBUNIT"/>
      </ItemDef>
      <ItemDef Comment="LBORNRLO converted to standard unit (LBSTRESU)" DataType="integer" Length="8" Name="LBSTNRLO" OID="LB.LBSTNRLO" Origin="Derived" def:Label="Reference Range Lower Limit-Std Units"/>
      <ItemDef Comment="LBORNRHI converted to standard unit (LBSTRESU)" DataType="integer" Length="8" Name="LBSTNRHI" OID="LB.LBSTNRHI" Origin="Derived" def:Label="Reference Range Upper Limit-Std Units"/>
      <ItemDef Comment="If LBSTRESN &gt; LBSTNRHI then LBNRIND=&quot;HIGH&quot;. If LBSTRESN &lt; LBSTNRLO then LBNRIND=&quot;LOW&quot;. If LBSTRESN between LBSTNRLO and LBSTNRHI then LBNRIND=&quot;NORMAL&quot;. Selected urinalysis parameters (e.g. Ketones) are classified as NORMAL or ABNORMAL only." DataType="text" Length="200" Name="LBNRIND" OID="LB.LBNRIND" Origin="Derived" def:Label="Reference Range Indicator">
        <CodeListRef CodeListOID="LBNRIND"/>
      </ItemDef>
      <ItemDef Comment="If VISIT=&quot;SCREENING&quot; then LBBLFL=Y" DataType="text" Length="1" Name="LBBLFL" OID="LB.LBBLFL" Origin="Derived" def:Label="Baseline Flag">
        <CodeListRef CodeListOID="Y_BLANK"/>
      </ItemDef>
      <ItemDef Comment=" " DataType="float" Length="8" Name="VISITNUM" OID="LB.VISITNUM" Origin="eDT" SignificantDigits="1" def:DisplayFormat="8.1" def:Label="Visit Number">
        <CodeListRef CodeListOID="VISITNUM"/>
      </ItemDef>
      <ItemDef Comment=" " DataType="text" Length="19" Name="VISIT" OID="LB.VISIT" Origin="eDT" def:Label="Visit Name">
        <CodeListRef CodeListOID="VISIT"/>
      </ItemDef>
      <ItemDef Comment="TV.VISITDY" DataType="integer" Length="8" Name="VISITDY" OID="LB.VISITDY" Origin="Derived" def:Label="Planned Study Day of Visit"/>
      <ItemDef Comment=" " DataType="datetime" Length="16" Name="LBDTC" OID="LB.LBDTC" Origin="eDT" def:Label="Date/Time of Specimen Collection"/>
      <ItemDef DataType="integer" Length="8" Name="LBDY" OID="LB.LBDY" Origin="Derived" def:ComputationMethodOID="COMPMETHOD.STUDY_DAY" def:Label="Study Day of Specimen Collection"/>
      <ItemDef Comment=" " DataType="text" Length="12" Name="STUDYID" OID="RELREC.STUDYID" Origin="CRF Page 7" def:Label="Study Identifier"/>
      <ItemDef Comment="Domain abbreviations for domains which are related to at least one other domain. Derived from parent record" DataType="text" Length="2" Name="RDOMAIN" OID="RELREC.RDOMAIN" Origin="Derived" def:Label="Related Domain Abbreviation"/>
      <ItemDef Comment="Concatenation of STUDYID, DM.SITEID and DM.SUBJID" DataType="text" Length="11" Name="USUBJID" OID="RELREC.USUBJID" Origin="Derived" def:Label="Unique Subject Identifier"/>
      <ItemDef Comment="Derived from parent record" DataType="text" Length="8" Name="IDVAR" OID="RELREC.IDVAR" Origin="Derived" def:Label="Identifying Variable"/>
      <ItemDef Comment="Derived from parent record" DataType="text" Length="200" Name="IDVARVAL" OID="RELREC.IDVARVAL" Origin="Derived" def:Label="Identifying Variable Value"/>
      <ItemDef Comment=" " DataType="text" Length="30" Name="RELTYPE" OID="RELREC.RELTYPE" Origin="Assigned" def:Label="Relationship Type"/>
      <ItemDef Comment="Records with the same RELID value can be considered as related records" DataType="text" Length="200" Name="RELID" OID="RELREC.RELID" Origin="Derived" def:Label="Relationship Identifier"/>
      <ItemDef Comment=" " DataType="text" Length="12" Name="STUDYID" OID="TA.STUDYID" Origin="CRF Page 7" def:Label="Study Identifier"/>
      <ItemDef Comment=" " DataType="text" Length="2" Name="DOMAIN" OID="TA.DOMAIN" Origin="Assigned" def:Label="Domain Abbreviation"/>
      <ItemDef Comment=" " DataType="text" Length="8" Name="ARMCD" OID="TA.ARMCD" Origin="Assigned" def:Label="Planned Arm Code">
        <CodeListRef CodeListOID="ARMCD"/>
      </ItemDef>
      <ItemDef Comment=" " DataType="text" Length="20" Name="ARM" OID="TA.ARM" Origin="Protocol" def:Label="Description of Planned Arm">
        <CodeListRef CodeListOID="ARM"/>
      </ItemDef>
      <ItemDef Comment=" " DataType="integer" Length="8" Name="TAETORD" OID="TA.TAETORD" Origin="Assigned" def:Label="Order of Element within Arm"/>
      <ItemDef Comment=" " DataType="text" Length="200" Name="ETCD" OID="TA.ETCD" Origin="Assigned" def:Label="Element Code">
        <CodeListRef CodeListOID="ETCD"/>
      </ItemDef>
      <ItemDef Comment=" " DataType="text" Length="200" Name="ELEMENT" OID="TA.ELEMENT" Origin="Protocol" def:Label="Description of Element">
        <CodeListRef CodeListOID="ELEMENT"/>
      </ItemDef>
      <ItemDef Comment=" " DataType="text" Length="200" Name="TABRANCH" OID="TA.TABRANCH" Origin="Protocol" def:Label="Branch"/>
      <ItemDef Comment=" " DataType="text" Length="200" Name="TATRANS" OID="TA.TATRANS" Origin="Protocol" def:Label="Transition Rule"/>
      <ItemDef Comment=" " DataType="text" Length="200" Name="EPOCH" OID="TA.EPOCH" Origin="Protocol" def:Label="Epoch">
        <CodeListRef CodeListOID="EPOCH"/>
      </ItemDef>
      <ItemDef Comment=" " DataType="text" Length="200" Name="NULL" OID="LB.LBCAT.NULL" Origin="eDT" def:Label="NULL">
        <def:ValueListRef ValueListOID="ValueList.LB.LBCAT.NULL.LBTESTCD"/>
      </ItemDef>
      <ItemDef Comment=" " DataType="text" Length="200" Name="CHEMISTRY" OID="LB.LBCAT.CHEMISTRY" Origin="eDT" def:Label="CHEMISTRY">
        <def:ValueListRef ValueListOID="ValueList.LB.LBCAT.CHEMISTRY.LBTESTCD"/>
      </ItemDef>
      <ItemDef Comment=" " DataType="text" Length="200" Name="HEMATOLOGY" OID="LB.LBCAT.HEMATOLOGY" Origin="eDT" def:Label="HEMATOLOGY">
        <def:ValueListRef ValueListOID="ValueList.LB.LBCAT.HEMATOLOGY.LBTESTCD"/>
      </ItemDef>
      <ItemDef Comment=" " DataType="text" Length="200" Name="OTHER" OID="LB.LBCAT.OTHER" Origin="eDT" def:Label="OTHER">
        <def:ValueListRef ValueListOID="ValueList.LB.LBCAT.OTHER.LBTESTCD"/>
      </ItemDef>
      <ItemDef Comment=" " DataType="text" Length="200" Name="URINALYSIS" OID="LB.LBCAT.URINALYSIS" Origin="eDT" def:Label="URINALYSIS">
        <def:ValueListRef ValueListOID="ValueList.LB.LBCAT.URINALYSIS.LBTESTCD"/>
      </ItemDef>
      <ItemDef Comment=" " DataType="integer" Length="8" Name="ALB" OID="LB.LBCAT.CHEMISTRY.LBTESTCD.ALB" Origin="eDT" def:Label="Albumin"/>
      <ItemDef Comment=" " DataType="integer" Length="8" Name="ALP" OID="LB.LBCAT.CHEMISTRY.LBTESTCD.ALP" Origin="eDT" def:Label="Alkaline Phosphatase"/>
      <ItemDef Comment=" " DataType="integer" Length="8" Name="ALT" OID="LB.LBCAT.CHEMISTRY.LBTESTCD.ALT" Origin="eDT" def:Label="Alanine Aminotransferase"/>
      <ItemDef Comment=" " DataType="integer" Length="8" Name="AST" OID="LB.LBCAT.CHEMISTRY.LBTESTCD.AST" Origin="eDT" def:Label="Aspartate Aminotransferase"/>
      <ItemDef Comment=" " DataType="float" Length="8" Name="BILI" OID="LB.LBCAT.CHEMISTRY.LBTESTCD.BILI" Origin="eDT" SignificantDigits="2" def:DisplayFormat="12.2" def:Label="Bilirubin"/>
      <ItemDef Comment=" " DataType="float" Length="8" Name="BUN" OID="LB.LBCAT.CHEMISTRY.LBTESTCD.BUN" Origin="eDT" SignificantDigits="3" def:DisplayFormat="12.3" def:Label="Blood Urea Nitrogen"/>
      <ItemDef Comment=" " DataType="float" Length="8" Name="CA" OID="LB.LBCAT.CHEMISTRY.LBTESTCD.CA" Origin="eDT" SignificantDigits="5" def:DisplayFormat="12.5" def:Label="Calcium"/>
      <ItemDef Comment=" " DataType="float" Length="8" Name="CHOL" OID="LB.LBCAT.CHEMISTRY.LBTESTCD.CHOL" Origin="eDT" SignificantDigits="5" def:DisplayFormat="12.5" def:Label="Cholesterol"/>
      <ItemDef Comment=" " DataType="integer" Length="8" Name="CK" OID="LB.LBCAT.CHEMISTRY.LBTESTCD.CK" Origin="eDT" def:Label="Creatine Kinase"/>
      <ItemDef Comment=" " DataType="integer" Length="8" Name="CL" OID="LB.LBCAT.CHEMISTRY.LBTESTCD.CL" Origin="eDT" def:Label="Chloride"/>
      <ItemDef Comment=" " DataType="float" Length="8" Name="CREAT" OID="LB.LBCAT.CHEMISTRY.LBTESTCD.CREAT" Origin="eDT" SignificantDigits="2" def:DisplayFormat="12.2" def:Label="Creatinine"/>
      <ItemDef Comment=" " DataType="integer" Length="8" Name="GGT" OID="LB.LBCAT.CHEMISTRY.LBTESTCD.GGT" Origin="eDT" def:Label="Gamma Glutamyl Transferase"/>
      <ItemDef Comment=" " DataType="float" Length="8" Name="GLUC" OID="LB.LBCAT.CHEMISTRY.LBTESTCD.GLUC" Origin="eDT" SignificantDigits="5" def:DisplayFormat="12.5" def:Label="Glucose"/>
      <ItemDef Comment=" " DataType="float" Length="8" Name="K" OID="LB.LBCAT.CHEMISTRY.LBTESTCD.K" Origin="eDT" SignificantDigits="1" def:DisplayFormat="12.1" def:Label="Potassium"/>
      <ItemDef Comment=" " DataType="float" Length="8" Name="PHOS" OID="LB.LBCAT.CHEMISTRY.LBTESTCD.PHOS" Origin="eDT" SignificantDigits="5" def:DisplayFormat="12.5" def:Label="Phosphate"/>
      <ItemDef Comment=" " DataType="integer" Length="8" Name="PROT" OID="LB.LBCAT.CHEMISTRY.LBTESTCD.PROT" Origin="eDT" def:Label="Protein"/>
      <ItemDef Comment=" " DataType="integer" Length="8" Name="SODIUM" OID="LB.LBCAT.CHEMISTRY.LBTESTCD.SODIUM" Origin="eDT" def:Label="Sodium"/>
      <ItemDef Comment=" " DataType="float" Length="8" Name="URATE" OID="LB.LBCAT.CHEMISTRY.LBTESTCD.URATE" Origin="eDT" SignificantDigits="3" def:DisplayFormat="12.3" def:Label="Urate"/>
      <ItemDef Comment=" " DataType="integer" Length="8" Name="ANISO" OID="LB.LBCAT.HEMATOLOGY.LBTESTCD.ANISO" Origin="eDT" def:Label="Anisocytes"/>
      <ItemDef Comment=" " DataType="float" Length="8" Name="BASO" OID="LB.LBCAT.HEMATOLOGY.LBTESTCD.BASO" Origin="eDT" SignificantDigits="2" def:DisplayFormat="12.2" def:Label="Basophils"/>
      <ItemDef Comment=" " DataType="float" Length="8" Name="EOS" OID="LB.LBCAT.HEMATOLOGY.LBTESTCD.EOS" Origin="eDT" SignificantDigits="2" def:DisplayFormat="12.2" def:Label="Eosinophils"/>
      <ItemDef Comment=" " DataType="float" Length="8" Name="HCT" OID="LB.LBCAT.HEMATOLOGY.LBTESTCD.HCT" Origin="eDT" SignificantDigits="2" def:DisplayFormat="12.2" def:Label="Hematocrit"/>
      <ItemDef Comment=" " DataType="float" Length="8" Name="HGB" OID="LB.LBCAT.HEMATOLOGY.LBTESTCD.HGB" Origin="eDT" SignificantDigits="5" def:DisplayFormat="12.5" def:Label="Hemoglobin"/>
      <ItemDef Comment=" " DataType="float" Length="8" Name="LYM" OID="LB.LBCAT.HEMATOLOGY.LBTESTCD.LYM" Origin="eDT" SignificantDigits="2" def:DisplayFormat="12.2" def:Label="Lymphocytes"/>
      <ItemDef Comment=" " DataType="integer" Length="8" Name="MACROCY" OID="LB.LBCAT.HEMATOLOGY.LBTESTCD.MACROCY" Origin="eDT" def:Label="Macrocytes"/>
      <ItemDef Comment=" " DataType="float" Length="8" Name="MCH" OID="LB.LBCAT.HEMATOLOGY.LBTESTCD.MCH" Origin="eDT" SignificantDigits="5" def:DisplayFormat="12.5" def:Label="Ery. Mean Corpuscular Hemoglobin"/>
      <ItemDef Comment=" " DataType="float" Length="8" Name="MCHC" OID="LB.LBCAT.HEMATOLOGY.LBTESTCD.MCHC" Origin="eDT" SignificantDigits="4" def:DisplayFormat="12.4" def:Label="Ery. Mean Corpuscular HGB Concentration"/>
      <ItemDef Comment=" " DataType="integer" Length="8" Name="MCV" OID="LB.LBCAT.HEMATOLOGY.LBTESTCD.MCV" Origin="eDT" def:Label="Ery. Mean Corpuscular Volume"/>
      <ItemDef Comment=" " DataType="integer" Length="8" Name="MICROCY" OID="LB.LBCAT.HEMATOLOGY.LBTESTCD.MICROCY" Origin="eDT" def:Label="Microcytes"/>
      <ItemDef Comment=" " DataType="float" Length="8" Name="MONO" OID="LB.LBCAT.HEMATOLOGY.LBTESTCD.MONO" Origin="eDT" SignificantDigits="2" def:DisplayFormat="12.2" def:Label="Monocytes"/>
      <ItemDef Comment=" " DataType="integer" Length="8" Name="PLAT" OID="LB.LBCAT.HEMATOLOGY.LBTESTCD.PLAT" Origin="eDT" def:Label="Platelet"/>
      <ItemDef Comment=" " DataType="integer" Length="8" Name="POIKILO" OID="LB.LBCAT.HEMATOLOGY.LBTESTCD.POIKILO" Origin="eDT" def:Label="Poikilocytes"/>
      <ItemDef Comment=" " DataType="integer" Length="8" Name="POLYCHR" OID="LB.LBCAT.HEMATOLOGY.LBTESTCD.POLYCHR" Origin="eDT" def:Label="Polychromasia"/>
      <ItemDef Comment=" " DataType="float" Length="8" Name="RBC" OID="LB.LBCAT.HEMATOLOGY.LBTESTCD.RBC" Origin="eDT" SignificantDigits="1" def:DisplayFormat="12.1" def:Label="Erythrocytes"/>
      <ItemDef Comment=" " DataType="float" Length="8" Name="WBC" OID="LB.LBCAT.HEMATOLOGY.LBTESTCD.WBC" Origin="eDT" SignificantDigits="2" def:DisplayFormat="12.2" def:Label="Leukocytes"/>
      <ItemDef Comment=" " DataType="float" Length="8" Name="HBA1C" OID="LB.LBCAT.NULL.LBTESTCD.HBA1C" Origin="eDT" SignificantDigits="3" def:DisplayFormat="12.3" def:Label="Hemoglobin A1C"/>
      <ItemDef Comment=" " DataType="float" Length="8" Name="TSH" OID="LB.LBCAT.OTHER.LBTESTCD.TSH" Origin="eDT" SignificantDigits="2" def:DisplayFormat="12.2" def:Label="Thyrotropin"/>
      <ItemDef Comment=" " DataType="float" Length="8" Name="VITB12" OID="LB.LBCAT.OTHER.LBTESTCD.VITB12" Origin="eDT" SignificantDigits="4" def:DisplayFormat="12.4" def:Label="Vitamin B12"/>
      <ItemDef Comment=" " DataType="text" Length="1" Name="COLOR" OID="LB.LBCAT.URINALYSIS.LBTESTCD.COLOR" Origin="eDT" def:Label="Color">
        <CodeListRef CodeListOID="COLOR"/>
      </ItemDef>
      <ItemDef Comment=" " DataType="integer" Length="8" Name="KETONES" OID="LB.LBCAT.URINALYSIS.LBTESTCD.KETONES" Origin="eDT" def:Label="Ketones"/>
      <ItemDef Comment=" " DataType="integer" Length="8" Name="PH" OID="LB.LBCAT.URINALYSIS.LBTESTCD.PH" Origin="eDT" def:Label="pH"/>
      <ItemDef Comment=" " DataType="float" Length="8" Name="SPGRAV" OID="LB.LBCAT.URINALYSIS.LBTESTCD.SPGRAV" Origin="eDT" SignificantDigits="3" def:DisplayFormat="12.3" def:Label="Specific Gravity"/>
      <ItemDef Comment=" " DataType="integer" Length="8" Name="UROBIL" OID="LB.LBCAT.URINALYSIS.LBTESTCD.UROBIL" Origin="eDT" def:Label="Urobilinogen"/>
      <CodeList DataType="text" Name="AECAUS" OID="AECAUS">
        <CodeListItem CodedValue="NONE" def:Rank="1">
          <Decode>
            <TranslatedText xml:lang="en">NONE</TranslatedText>
          </Decode>
        </CodeListItem>
        <CodeListItem CodedValue="POSSIBLE" def:Rank="2">
          <Decode>
            <TranslatedText xml:lang="en">POSSIBLE</TranslatedText>
          </Decode>
        </CodeListItem>
        <CodeListItem CodedValue="PROBABLE" def:Rank="3">
          <Decode>
            <TranslatedText xml:lang="en">PROBABLE</TranslatedText>
          </Decode>
        </CodeListItem>
        <CodeListItem CodedValue="REMOTE" def:Rank="4">
          <Decode>
            <TranslatedText xml:lang="en">REMOTE</TranslatedText>
          </Decode>
        </CodeListItem>
      </CodeList>
      <CodeList DataType="text" Name="AGEU" OID="AGEU">
        <CodeListItem CodedValue="YEARS" def:Rank="1">
          <Decode>
            <TranslatedText xml:lang="en">YEARS</TranslatedText>
          </Decode>
        </CodeListItem>
      </CodeList>
      <CodeList DataType="text" Name="ARM" OID="ARM">
        <CodeListItem CodedValue="Screen Failure" def:Rank="1">
          <Decode>
            <TranslatedText xml:lang="en">Screen Failure</TranslatedText>
          </Decode>
        </CodeListItem>
        <CodeListItem CodedValue="Placebo" def:Rank="2">
          <Decode>
            <TranslatedText xml:lang="en">Placebo</TranslatedText>
          </Decode>
        </CodeListItem>
        <CodeListItem CodedValue="Xanomeline Low Dose" def:Rank="3">
          <Decode>
            <TranslatedText xml:lang="en">Xanomeline Low Dose</TranslatedText>
          </Decode>
        </CodeListItem>
        <CodeListItem CodedValue="Xanomeline High Dose" def:Rank="4">
          <Decode>
            <TranslatedText xml:lang="en">Xanomeline High Dose</TranslatedText>
          </Decode>
        </CodeListItem>
      </CodeList>
      <CodeList DataType="text" Name="ARMCD" OID="ARMCD">
        <CodeListItem CodedValue="Scrnfail" def:Rank="1">
          <Decode>
            <TranslatedText xml:lang="en">Screen Failure</TranslatedText>
          </Decode>
        </CodeListItem>
        <CodeListItem CodedValue="Pbo" def:Rank="2">
          <Decode>
            <TranslatedText xml:lang="en">Placebo</TranslatedText>
          </Decode>
        </CodeListItem>
        <CodeListItem CodedValue="Xan_Lo" def:Rank="3">
          <Decode>
            <TranslatedText xml:lang="en">Xanomeline Low Dose</TranslatedText>
          </Decode>
        </CodeListItem>
        <CodeListItem CodedValue="Xan_Hi" def:Rank="4">
          <Decode>
            <TranslatedText xml:lang="en">Xanomeline High Dose</TranslatedText>
          </Decode>
        </CodeListItem>
      </CodeList>
      <CodeList DataType="text" Name="COLOR" OID="COLOR">
        <CodeListItem CodedValue="N" def:Rank="1">
          <Decode>
            <TranslatedText xml:lang="en">Normal</TranslatedText>
          </Decode>
        </CodeListItem>
        <CodeListItem CodedValue="A" def:Rank="2">
          <Decode>
            <TranslatedText xml:lang="en">Abnormal</TranslatedText>
          </Decode>
        </CodeListItem>
      </CodeList>
      <CodeList DataType="text" Name="COUNTRY" OID="COUNTRY">
        <CodeListItem CodedValue="USA" def:Rank="1">
          <Decode>
            <TranslatedText xml:lang="en">USA</TranslatedText>
          </Decode>
        </CodeListItem>
      </CodeList>
      <CodeList DataType="text" Name="DISCCD" OID="DISCCD">
        <CodeListItem CodedValue="COMPLETED" def:Rank="1">
          <Decode>
            <TranslatedText xml:lang="en">COMPLETED</TranslatedText>
          </Decode>
        </CodeListItem>
        <CodeListItem CodedValue="ADVERSE EVENT" def:Rank="2">
          <Decode>
            <TranslatedText xml:lang="en">ADVERSE EVENT</TranslatedText>
          </Decode>
        </CodeListItem>
        <CodeListItem CodedValue="DEATH" def:Rank="3">
          <Decode>
            <TranslatedText xml:lang="en">DEATH</TranslatedText>
          </Decode>
        </CodeListItem>
        <CodeListItem CodedValue="LACK OF EFFICACY" def:Rank="4">
          <Decode>
            <TranslatedText xml:lang="en">LACK OF EFFICACY</TranslatedText>
          </Decode>
        </CodeListItem>
        <CodeListItem CodedValue="LOST TO FOLLOW-UP" def:Rank="5">
          <Decode>
            <TranslatedText xml:lang="en">LOST TO FOLLOW-UP</TranslatedText>
          </Decode>
        </CodeListItem>
        <CodeListItem CodedValue="WITHDRAWAL BY SUBJECT" def:Rank="6">
          <Decode>
            <TranslatedText xml:lang="en">WITHDRAWAL BY SUBJECT</TranslatedText>
          </Decode>
        </CodeListItem>
        <CodeListItem CodedValue="SCREEN FAILURE" def:Rank="7">
          <Decode>
            <TranslatedText xml:lang="en">SCREEN FAILURE</TranslatedText>
          </Decode>
        </CodeListItem>
        <CodeListItem CodedValue="STUDY TERMINATED BY SPONSOR" def:Rank="8">
          <Decode>
            <TranslatedText xml:lang="en">STUDY TERMINATED BY SPONSOR</TranslatedText>
          </Decode>
        </CodeListItem>
        <CodeListItem CodedValue="PHYSICIAN DECISION" def:Rank="9">
          <Decode>
            <TranslatedText xml:lang="en">PHYSICIAN DECISION</TranslatedText>
          </Decode>
        </CodeListItem>
        <CodeListItem CodedValue="PROTOCOL VIOLATION" def:Rank="10">
          <Decode>
            <TranslatedText xml:lang="en">PROTOCOL VIOLATION</TranslatedText>
          </Decode>
        </CodeListItem>
        <CodeListItem CodedValue="FINAL LAB VISIT" def:Rank="11">
          <Decode>
            <TranslatedText xml:lang="en">FINAL LAB VISIT</TranslatedText>
          </Decode>
        </CodeListItem>
        <CodeListItem CodedValue="FINAL RETRIEVAL VISIT" def:Rank="12">
          <Decode>
            <TranslatedText xml:lang="en">FINAL RETRIEVAL VISIT</TranslatedText>
          </Decode>
        </CodeListItem>
      </CodeList>
      <CodeList DataType="text" Name="DSCAT" OID="DSCAT">
        <CodeListItem CodedValue="DISPOSITION EVENT" def:Rank="1">
          <Decode>
            <TranslatedText xml:lang="en">DISPOSITION EVENT</TranslatedText>
          </Decode>
        </CodeListItem>
        <CodeListItem CodedValue="OTHER EVENT" def:Rank="2">
          <Decode>
            <TranslatedText xml:lang="en">OTHER EVENT</TranslatedText>
          </Decode>
        </CodeListItem>
      </CodeList>
      <CodeList DataType="text" Name="ELEMENT" OID="ELEMENT">
        <CodeListItem CodedValue="Screen" def:Rank="1">
          <Decode>
            <TranslatedText xml:lang="en">Screen</TranslatedText>
          </Decode>
        </CodeListItem>
        <CodeListItem CodedValue="Placebo" def:Rank="2">
          <Decode>
            <TranslatedText xml:lang="en">Placebo</TranslatedText>
          </Decode>
        </CodeListItem>
        <CodeListItem CodedValue="Low" def:Rank="3">
          <Decode>
            <TranslatedText xml:lang="en">Low</TranslatedText>
          </Decode>
        </CodeListItem>
        <CodeListItem CodedValue="High_Start" def:Rank="4">
          <Decode>
            <TranslatedText xml:lang="en">High_Start</TranslatedText>
          </Decode>
        </CodeListItem>
        <CodeListItem CodedValue="High_Middle" def:Rank="5">
          <Decode>
            <TranslatedText xml:lang="en">High_Middle</TranslatedText>
          </Decode>
        </CodeListItem>
        <CodeListItem CodedValue="High_End" def:Rank="6">
          <Decode>
            <TranslatedText xml:lang="en">High_End</TranslatedText>
          </Decode>
        </CodeListItem>
        <CodeListItem CodedValue="Follow_up" def:Rank="7">
          <Decode>
            <TranslatedText xml:lang="en">Follow_up</TranslatedText>
          </Decode>
        </CodeListItem>
      </CodeList>
      <CodeList DataType="text" Name="EPOCH" OID="EPOCH">
        <CodeListItem CodedValue="Screening" def:Rank="1">
          <Decode>
            <TranslatedText xml:lang="en">Screening</TranslatedText>
          </Decode>
        </CodeListItem>
        <CodeListItem CodedValue="Treatment" def:Rank="2">
          <Decode>
            <TranslatedText xml:lang="en">Treatment</TranslatedText>
          </Decode>
        </CodeListItem>
      </CodeList>
      <CodeList DataType="text" Name="ETCD" OID="ETCD">
        <CodeListItem CodedValue="SCRN" def:Rank="1">
          <Decode>
            <TranslatedText xml:lang="en">Screen</TranslatedText>
          </Decode>
        </CodeListItem>
        <CodeListItem CodedValue="PBO" def:Rank="2">
          <Decode>
            <TranslatedText xml:lang="en">Placebo</TranslatedText>
          </Decode>
        </CodeListItem>
        <CodeListItem CodedValue="LO" def:Rank="3">
          <Decode>
            <TranslatedText xml:lang="en">Low</TranslatedText>
          </Decode>
        </CodeListItem>
        <CodeListItem CodedValue="HIS" def:Rank="4">
          <Decode>
            <TranslatedText xml:lang="en">High_Start</TranslatedText>
          </Decode>
        </CodeListItem>
        <CodeListItem CodedValue="HIM" def:Rank="5">
          <Decode>
            <TranslatedText xml:lang="en">High_Middle</TranslatedText>
          </Decode>
        </CodeListItem>
        <CodeListItem CodedValue="HIE" def:Rank="6">
          <Decode>
            <TranslatedText xml:lang="en">High_End</TranslatedText>
          </Decode>
        </CodeListItem>
        <CodeListItem CodedValue="FOLO" def:Rank="7">
          <Decode>
            <TranslatedText xml:lang="en">Follow_up</TranslatedText>
          </Decode>
        </CodeListItem>
        <CodeListItem CodedValue="UNPLAN" def:Rank="8">
          <Decode>
            <TranslatedText xml:lang="en">Unplanned</TranslatedText>
          </Decode>
        </CodeListItem>
      </CodeList>
      <CodeList DataType="text" Name="ETHNIC" OID="ETHNIC">
        <CodeListItem CodedValue="NOT HISPANIC OR LATINO" def:Rank="1">
          <Decode>
            <TranslatedText xml:lang="en">NOT HISPANIC OR LATINO</TranslatedText>
          </Decode>
        </CodeListItem>
        <CodeListItem CodedValue="HISPANIC OR LATINO" def:Rank="2">
          <Decode>
            <TranslatedText xml:lang="en">HISPANIC OR LATINO</TranslatedText>
          </Decode>
        </CodeListItem>
      </CodeList>
      <CodeList DataType="text" Name="LBCAT" OID="LBCAT">
        <CodeListItem CodedValue="CHEMISTRY" def:Rank="1">
          <Decode>
            <TranslatedText xml:lang="en">CHEMISTRY</TranslatedText>
          </Decode>
        </CodeListItem>
        <CodeListItem CodedValue="HEMATOLOGY" def:Rank="2">
          <Decode>
            <TranslatedText xml:lang="en">HEMATOLOGY</TranslatedText>
          </Decode>
        </CodeListItem>
        <CodeListItem CodedValue="OTHER" def:Rank="3">
          <Decode>
            <TranslatedText xml:lang="en">OTHER</TranslatedText>
          </Decode>
        </CodeListItem>
        <CodeListItem CodedValue="URINALYSIS" def:Rank="4">
          <Decode>
            <TranslatedText xml:lang="en">URINALYSIS</TranslatedText>
          </Decode>
        </CodeListItem>
      </CodeList>
      <CodeList DataType="text" Name="LBNRIND" OID="LBNRIND">
        <CodeListItem CodedValue="LOW" def:Rank="1">
          <Decode>
            <TranslatedText xml:lang="en">LOW</TranslatedText>
          </Decode>
        </CodeListItem>
        <CodeListItem CodedValue="NORMAL" def:Rank="2">
          <Decode>
            <TranslatedText xml:lang="en">NORMAL</TranslatedText>
          </Decode>
        </CodeListItem>
        <CodeListItem CodedValue="HIGH" def:Rank="3">
          <Decode>
            <TranslatedText xml:lang="en">HIGH</TranslatedText>
          </Decode>
        </CodeListItem>
        <CodeListItem CodedValue="ABNORMAL" def:Rank="4">
          <Decode>
            <TranslatedText xml:lang="en">ABNORMAL</TranslatedText>
          </Decode>
        </CodeListItem>
      </CodeList>
      <CodeList DataType="text" Name="LBUNIT" OID="LBUNIT">
        <CodeListItem CodedValue="1" def:Rank="1">
          <Decode>
            <TranslatedText xml:lang="en">1</TranslatedText>
          </Decode>
        </CodeListItem>
        <CodeListItem CodedValue="GI/L" def:Rank="2">
          <Decode>
            <TranslatedText xml:lang="en">GI/L</TranslatedText>
          </Decode>
        </CodeListItem>
        <CodeListItem CodedValue="TI/L" def:Rank="3">
          <Decode>
            <TranslatedText xml:lang="en">TI/L</TranslatedText>
          </Decode>
        </CodeListItem>
        <CodeListItem CodedValue="U/L" def:Rank="4">
          <Decode>
            <TranslatedText xml:lang="en">U/L</TranslatedText>
          </Decode>
        </CodeListItem>
        <CodeListItem CodedValue="fL" def:Rank="5">
          <Decode>
            <TranslatedText xml:lang="en">fL</TranslatedText>
          </Decode>
        </CodeListItem>
        <CodeListItem CodedValue="fmol(Fe)" def:Rank="6">
          <Decode>
            <TranslatedText xml:lang="en">fmol(Fe)</TranslatedText>
          </Decode>
        </CodeListItem>
        <CodeListItem CodedValue="g/L" def:Rank="7">
          <Decode>
            <TranslatedText xml:lang="en">g/L</TranslatedText>
          </Decode>
        </CodeListItem>
        <CodeListItem CodedValue="mU/L" def:Rank="8">
          <Decode>
            <TranslatedText xml:lang="en">mU/L</TranslatedText>
          </Decode>
        </CodeListItem>
        <CodeListItem CodedValue="mmol/L" def:Rank="9">
          <Decode>
            <TranslatedText xml:lang="en">mmol/L</TranslatedText>
          </Decode>
        </CodeListItem>
        <CodeListItem CodedValue="pmol/L" def:Rank="10">
          <Decode>
            <TranslatedText xml:lang="en">pmol/L</TranslatedText>
          </Decode>
        </CodeListItem>
        <CodeListItem CodedValue="umol/L" def:Rank="11">
          <Decode>
            <TranslatedText xml:lang="en">umol/L</TranslatedText>
          </Decode>
        </CodeListItem>
      </CodeList>
      <CodeList DataType="text" Name="OUT" OID="OUT">
        <CodeListItem CodedValue="RECOVERED/RESOLVED" def:Rank="1">
          <Decode>
            <TranslatedText xml:lang="en">RECOVERED/RESOLVED</TranslatedText>
          </Decode>
        </CodeListItem>
        <CodeListItem CodedValue="NOT RECOVERED/NOT RESOLVED" def:Rank="2">
          <Decode>
            <TranslatedText xml:lang="en">NOT RECOVERED/NOT RESOLVED</TranslatedText>
          </Decode>
        </CodeListItem>
        <CodeListItem CodedValue="FATAL" def:Rank="3">
          <Decode>
            <TranslatedText xml:lang="en">FATAL</TranslatedText>
          </Decode>
        </CodeListItem>
      </CodeList>
      <CodeList DataType="text" Name="RACE" OID="RACE">
        <CodeListItem CodedValue="WHITE" def:Rank="1">
          <Decode>
            <TranslatedText xml:lang="en">WHITE</TranslatedText>
          </Decode>
        </CodeListItem>
        <CodeListItem CodedValue="BLACK OR AFRICAN AMERICAN" def:Rank="2">
          <Decode>
            <TranslatedText xml:lang="en">BLACK OR AFRICAN AMERICAN</TranslatedText>
          </Decode>
        </CodeListItem>
        <CodeListItem CodedValue="AMERICAN INDIAN OR ALASKA NATIVE" def:Rank="3">
          <Decode>
            <TranslatedText xml:lang="en">AMERICAN INDIAN OR ALASKA NATIVE</TranslatedText>
          </Decode>
        </CodeListItem>
        <CodeListItem CodedValue="ASIAN" def:Rank="4">
          <Decode>
            <TranslatedText xml:lang="en">ASIAN</TranslatedText>
          </Decode>
        </CodeListItem>
      </CodeList>
      <CodeList DataType="text" Name="SEV" OID="SEV">
        <CodeListItem CodedValue="MILD" def:Rank="1">
          <Decode>
            <TranslatedText xml:lang="en">MILD</TranslatedText>
          </Decode>
        </CodeListItem>
        <CodeListItem CodedValue="MODERATE" def:Rank="2">
          <Decode>
            <TranslatedText xml:lang="en">MODERATE</TranslatedText>
          </Decode>
        </CodeListItem>
        <CodeListItem CodedValue="SEVERE" def:Rank="3">
          <Decode>
            <TranslatedText xml:lang="en">SEVERE</TranslatedText>
          </Decode>
        </CodeListItem>
      </CodeList>
      <CodeList DataType="text" Name="SEX" OID="SEX">
        <CodeListItem CodedValue="F" def:Rank="1">
          <Decode>
            <TranslatedText xml:lang="en">Female</TranslatedText>
          </Decode>
        </CodeListItem>
        <CodeListItem CodedValue="M" def:Rank="2">
          <Decode>
            <TranslatedText xml:lang="en">Male</TranslatedText>
          </Decode>
        </CodeListItem>
        <CodeListItem CodedValue="U" def:Rank="3">
          <Decode>
            <TranslatedText xml:lang="en">Unknown</TranslatedText>
          </Decode>
        </CodeListItem>
      </CodeList>
      <CodeList DataType="text" Name="VISIT" OID="VISIT">
        <CodeListItem CodedValue="SCREENING 1" def:Rank="1">
          <Decode>
            <TranslatedText xml:lang="en">SCREENING 1</TranslatedText>
          </Decode>
        </CodeListItem>
        <CodeListItem CodedValue="UNSCHEDULED 1.1" def:Rank="2">
          <Decode>
            <TranslatedText xml:lang="en">UNSCHEDULED 1.1</TranslatedText>
          </Decode>
        </CodeListItem>
        <CodeListItem CodedValue="UNSCHEDULED 1.2" def:Rank="3">
          <Decode>
            <TranslatedText xml:lang="en">UNSCHEDULED 1.2</TranslatedText>
          </Decode>
        </CodeListItem>
        <CodeListItem CodedValue="UNSCHEDULED 1.3" def:Rank="4">
          <Decode>
            <TranslatedText xml:lang="en">UNSCHEDULED 1.3</TranslatedText>
          </Decode>
        </CodeListItem>
        <CodeListItem CodedValue="SCREENING 2" def:Rank="5">
          <Decode>
            <TranslatedText xml:lang="en">SCREENING 2</TranslatedText>
          </Decode>
        </CodeListItem>
        <CodeListItem CodedValue="BASELINE" def:Rank="6">
          <Decode>
            <TranslatedText xml:lang="en">BASELINE</TranslatedText>
          </Decode>
        </CodeListItem>
        <CodeListItem CodedValue="UNSCHEDULED 3.1" def:Rank="7">
          <Decode>
            <TranslatedText xml:lang="en">UNSCHEDULED 3.1</TranslatedText>
          </Decode>
        </CodeListItem>
        <CodeListItem CodedValue="AMBUL ECG PLACEMENT" def:Rank="8">
          <Decode>
            <TranslatedText xml:lang="en">AMBUL ECG PLACEMENT</TranslatedText>
          </Decode>
        </CodeListItem>
        <CodeListItem CodedValue="WEEK 2" def:Rank="9">
          <Decode>
            <TranslatedText xml:lang="en">WEEK 2</TranslatedText>
          </Decode>
        </CodeListItem>
        <CodeListItem CodedValue="UNSCHEDULED 4.1" def:Rank="10">
          <Decode>
            <TranslatedText xml:lang="en">UNSCHEDULED 4.1</TranslatedText>
          </Decode>
        </CodeListItem>
        <CodeListItem CodedValue="UNSCHEDULED 4.2" def:Rank="11">
          <Decode>
            <TranslatedText xml:lang="en">UNSCHEDULED 4.2</TranslatedText>
          </Decode>
        </CodeListItem>
        <CodeListItem CodedValue="WEEK 4" def:Rank="12">
          <Decode>
            <TranslatedText xml:lang="en">WEEK 4</TranslatedText>
          </Decode>
        </CodeListItem>
        <CodeListItem CodedValue="UNSCHEDULED 5.1" def:Rank="13">
          <Decode>
            <TranslatedText xml:lang="en">UNSCHEDULED 5.1</TranslatedText>
          </Decode>
        </CodeListItem>
        <CodeListItem CodedValue="AMBUL ECG REMOVAL" def:Rank="14">
          <Decode>
            <TranslatedText xml:lang="en">AMBUL ECG REMOVAL</TranslatedText>
          </Decode>
        </CodeListItem>
        <CodeListItem CodedValue="UNSCHEDULED 6.1" def:Rank="15">
          <Decode>
            <TranslatedText xml:lang="en">UNSCHEDULED 6.1</TranslatedText>
          </Decode>
        </CodeListItem>
        <CodeListItem CodedValue="WEEK 6" def:Rank="16">
          <Decode>
            <TranslatedText xml:lang="en">WEEK 6</TranslatedText>
          </Decode>
        </CodeListItem>
        <CodeListItem CodedValue="UNSCHEDULED 7.1" def:Rank="17">
          <Decode>
            <TranslatedText xml:lang="en">UNSCHEDULED 7.1</TranslatedText>
          </Decode>
        </CodeListItem>
        <CodeListItem CodedValue="WEEK 8" def:Rank="18">
          <Decode>
            <TranslatedText xml:lang="en">WEEK 8</TranslatedText>
          </Decode>
        </CodeListItem>
        <CodeListItem CodedValue="WEEK 10 (T)" def:Rank="19">
          <Decode>
            <TranslatedText xml:lang="en">WEEK 10 (T)</TranslatedText>
          </Decode>
        </CodeListItem>
        <CodeListItem CodedValue="UNSCHEDULED 8.2" def:Rank="20">
          <Decode>
            <TranslatedText xml:lang="en">UNSCHEDULED 8.2</TranslatedText>
          </Decode>
        </CodeListItem>
        <CodeListItem CodedValue="WEEK 12" def:Rank="21">
          <Decode>
            <TranslatedText xml:lang="en">WEEK 12</TranslatedText>
          </Decode>
        </CodeListItem>
        <CodeListItem CodedValue="WEEK 14 (T)" def:Rank="22">
          <Decode>
            <TranslatedText xml:lang="en">WEEK 14 (T)</TranslatedText>
          </Decode>
        </CodeListItem>
        <CodeListItem CodedValue="UNSCHEDULED 9.2" def:Rank="23">
          <Decode>
            <TranslatedText xml:lang="en">UNSCHEDULED 9.2</TranslatedText>
          </Decode>
        </CodeListItem>
        <CodeListItem CodedValue="UNSCHEDULED 9.3" def:Rank="24">
          <Decode>
            <TranslatedText xml:lang="en">UNSCHEDULED 9.3</TranslatedText>
          </Decode>
        </CodeListItem>
        <CodeListItem CodedValue="WEEK 16" def:Rank="25">
          <Decode>
            <TranslatedText xml:lang="en">WEEK 16</TranslatedText>
          </Decode>
        </CodeListItem>
        <CodeListItem CodedValue="WEEK 18 (T)" def:Rank="26">
          <Decode>
            <TranslatedText xml:lang="en">WEEK 18 (T)</TranslatedText>
          </Decode>
        </CodeListItem>
        <CodeListItem CodedValue="UNSCHEDULED 10.2" def:Rank="27">
          <Decode>
            <TranslatedText xml:lang="en">UNSCHEDULED 10.2</TranslatedText>
          </Decode>
        </CodeListItem>
        <CodeListItem CodedValue="WEEK 20" def:Rank="28">
          <Decode>
            <TranslatedText xml:lang="en">WEEK 20</TranslatedText>
          </Decode>
        </CodeListItem>
        <CodeListItem CodedValue="WEEK 22 (T)" def:Rank="29">
          <Decode>
            <TranslatedText xml:lang="en">WEEK 22 (T)</TranslatedText>
          </Decode>
        </CodeListItem>
        <CodeListItem CodedValue="UNSCHEDULED 11.2" def:Rank="30">
          <Decode>
            <TranslatedText xml:lang="en">UNSCHEDULED 11.2</TranslatedText>
          </Decode>
        </CodeListItem>
        <CodeListItem CodedValue="WEEK 24" def:Rank="31">
          <Decode>
            <TranslatedText xml:lang="en">WEEK 24</TranslatedText>
          </Decode>
        </CodeListItem>
        <CodeListItem CodedValue="UNSCHEDULED 12.1" def:Rank="32">
          <Decode>
            <TranslatedText xml:lang="en">UNSCHEDULED 12.1</TranslatedText>
          </Decode>
        </CodeListItem>
        <CodeListItem CodedValue="WEEK 26" def:Rank="33">
          <Decode>
            <TranslatedText xml:lang="en">WEEK 26</TranslatedText>
          </Decode>
        </CodeListItem>
        <CodeListItem CodedValue="UNSCHEDULED 13.1" def:Rank="34">
          <Decode>
            <TranslatedText xml:lang="en">UNSCHEDULED 13.1</TranslatedText>
          </Decode>
        </CodeListItem>
        <CodeListItem CodedValue="AE FOLLOW-UP" def:Rank="35">
          <Decode>
            <TranslatedText xml:lang="en">AE FOLLOW-UP</TranslatedText>
          </Decode>
        </CodeListItem>
        <CodeListItem CodedValue="RETRIEVAL" def:Rank="36">
          <Decode>
            <TranslatedText xml:lang="en">RETRIEVAL</TranslatedText>
          </Decode>
        </CodeListItem>
        <CodeListItem CodedValue="Rash followup" def:Rank="37">
          <Decode>
            <TranslatedText xml:lang="en">Rash followup</TranslatedText>
          </Decode>
        </CodeListItem>
      </CodeList>
      <CodeList DataType="float" Name="VISITNUM" OID="VISITNUM">
        <CodeListItem CodedValue="1" def:Rank="1">
          <Decode>
            <TranslatedText xml:lang="en">SCREENING 1</TranslatedText>
          </Decode>
        </CodeListItem>
        <CodeListItem CodedValue="1.1" def:Rank="2">
          <Decode>
            <TranslatedText xml:lang="en">UNSCHEDULED 1.1</TranslatedText>
          </Decode>
        </CodeListItem>
        <CodeListItem CodedValue="1.2" def:Rank="3">
          <Decode>
            <TranslatedText xml:lang="en">UNSCHEDULED 1.2</TranslatedText>
          </Decode>
        </CodeListItem>
        <CodeListItem CodedValue="1.3" def:Rank="4">
          <Decode>
            <TranslatedText xml:lang="en">UNSCHEDULED 1.3</TranslatedText>
          </Decode>
        </CodeListItem>
        <CodeListItem CodedValue="2" def:Rank="5">
          <Decode>
            <TranslatedText xml:lang="en">SCREENING 2</TranslatedText>
          </Decode>
        </CodeListItem>
        <CodeListItem CodedValue="3" def:Rank="6">
          <Decode>
            <TranslatedText xml:lang="en">BASELINE</TranslatedText>
          </Decode>
        </CodeListItem>
        <CodeListItem CodedValue="3.1" def:Rank="7">
          <Decode>
            <TranslatedText xml:lang="en">UNSCHEDULED 3.1</TranslatedText>
          </Decode>
        </CodeListItem>
        <CodeListItem CodedValue="3.5" def:Rank="8">
          <Decode>
            <TranslatedText xml:lang="en">AMBUL ECG PLACEMENT</TranslatedText>
          </Decode>
        </CodeListItem>
        <CodeListItem CodedValue="4" def:Rank="9">
          <Decode>
            <TranslatedText xml:lang="en">WEEK 2</TranslatedText>
          </Decode>
        </CodeListItem>
        <CodeListItem CodedValue="4.1" def:Rank="10">
          <Decode>
            <TranslatedText xml:lang="en">UNSCHEDULED 4.1</TranslatedText>
          </Decode>
        </CodeListItem>
        <CodeListItem CodedValue="4.2" def:Rank="11">
          <Decode>
            <TranslatedText xml:lang="en">UNSCHEDULED 4.2</TranslatedText>
          </Decode>
        </CodeListItem>
        <CodeListItem CodedValue="5" def:Rank="12">
          <Decode>
            <TranslatedText xml:lang="en">WEEK 4</TranslatedText>
          </Decode>
        </CodeListItem>
        <CodeListItem CodedValue="5.1" def:Rank="13">
          <Decode>
            <TranslatedText xml:lang="en">UNSCHEDULED 5.1</TranslatedText>
          </Decode>
        </CodeListItem>
        <CodeListItem CodedValue="6" def:Rank="14">
          <Decode>
            <TranslatedText xml:lang="en">AMBUL ECG REMOVAL</TranslatedText>
          </Decode>
        </CodeListItem>
        <CodeListItem CodedValue="6.1" def:Rank="15">
          <Decode>
            <TranslatedText xml:lang="en">UNSCHEDULED 6.1</TranslatedText>
          </Decode>
        </CodeListItem>
        <CodeListItem CodedValue="7" def:Rank="16">
          <Decode>
            <TranslatedText xml:lang="en">WEEK 6</TranslatedText>
          </Decode>
        </CodeListItem>
        <CodeListItem CodedValue="7.1" def:Rank="17">
          <Decode>
            <TranslatedText xml:lang="en">UNSCHEDULED 7.1</TranslatedText>
          </Decode>
        </CodeListItem>
        <CodeListItem CodedValue="8" def:Rank="18">
          <Decode>
            <TranslatedText xml:lang="en">WEEK 8</TranslatedText>
          </Decode>
        </CodeListItem>
        <CodeListItem CodedValue="8.1" def:Rank="19">
          <Decode>
            <TranslatedText xml:lang="en">WEEK 10 (T)</TranslatedText>
          </Decode>
        </CodeListItem>
        <CodeListItem CodedValue="8.2" def:Rank="20">
          <Decode>
            <TranslatedText xml:lang="en">UNSCHEDULED 8.2</TranslatedText>
          </Decode>
        </CodeListItem>
        <CodeListItem CodedValue="9" def:Rank="21">
          <Decode>
            <TranslatedText xml:lang="en">WEEK 12</TranslatedText>
          </Decode>
        </CodeListItem>
        <CodeListItem CodedValue="9.1" def:Rank="22">
          <Decode>
            <TranslatedText xml:lang="en">WEEK 14 (T)</TranslatedText>
          </Decode>
        </CodeListItem>
        <CodeListItem CodedValue="9.2" def:Rank="23">
          <Decode>
            <TranslatedText xml:lang="en">UNSCHEDULED 9.2</TranslatedText>
          </Decode>
        </CodeListItem>
        <CodeListItem CodedValue="9.3" def:Rank="24">
          <Decode>
            <TranslatedText xml:lang="en">UNSCHEDULED 9.3</TranslatedText>
          </Decode>
        </CodeListItem>
        <CodeListItem CodedValue="10" def:Rank="25">
          <Decode>
            <TranslatedText xml:lang="en">WEEK 16</TranslatedText>
          </Decode>
        </CodeListItem>
        <CodeListItem CodedValue="10.1" def:Rank="26">
          <Decode>
            <TranslatedText xml:lang="en">WEEK 18 (T)</TranslatedText>
          </Decode>
        </CodeListItem>
        <CodeListItem CodedValue="10.2" def:Rank="27">
          <Decode>
            <TranslatedText xml:lang="en">UNSCHEDULED 10.2</TranslatedText>
          </Decode>
        </CodeListItem>
        <CodeListItem CodedValue="11" def:Rank="28">
          <Decode>
            <TranslatedText xml:lang="en">WEEK 20</TranslatedText>
          </Decode>
        </CodeListItem>
        <CodeListItem CodedValue="11.1" def:Rank="29">
          <Decode>
            <TranslatedText xml:lang="en">WEEK 22 (T)</TranslatedText>
          </Decode>
        </CodeListItem>
        <CodeListItem CodedValue="11.2" def:Rank="30">
          <Decode>
            <TranslatedText xml:lang="en">UNSCHEDULED 11.2</TranslatedText>
          </Decode>
        </CodeListItem>
        <CodeListItem CodedValue="12" def:Rank="31">
          <Decode>
            <TranslatedText xml:lang="en">WEEK 24</TranslatedText>
          </Decode>
        </CodeListItem>
        <CodeListItem CodedValue="12.1" def:Rank="32">
          <Decode>
            <TranslatedText xml:lang="en">UNSCHEDULED 12.1</TranslatedText>
          </Decode>
        </CodeListItem>
        <CodeListItem CodedValue="13" def:Rank="33">
          <Decode>
            <TranslatedText xml:lang="en">WEEK 26</TranslatedText>
          </Decode>
        </CodeListItem>
        <CodeListItem CodedValue="13.1" def:Rank="34">
          <Decode>
            <TranslatedText xml:lang="en">UNSCHEDULED 13.1</TranslatedText>
          </Decode>
        </CodeListItem>
        <CodeListItem CodedValue="101" def:Rank="35">
          <Decode>
            <TranslatedText xml:lang="en">AE FOLLOW-UP</TranslatedText>
          </Decode>
        </CodeListItem>
        <CodeListItem CodedValue="201" def:Rank="36">
          <Decode>
            <TranslatedText xml:lang="en">RETRIEVAL</TranslatedText>
          </Decode>
        </CodeListItem>
        <CodeListItem CodedValue="501" def:Rank="37">
          <Decode>
            <TranslatedText xml:lang="en">Rash followup</TranslatedText>
          </Decode>
        </CodeListItem>
      </CodeList>
      <CodeList DataType="text" Name="YN" OID="YN">
        <CodeListItem CodedValue="N" def:Rank="1">
          <Decode>
            <TranslatedText xml:lang="en">No</TranslatedText>
          </Decode>
        </CodeListItem>
        <CodeListItem CodedValue="Y" def:Rank="2">
          <Decode>
            <TranslatedText xml:lang="en">Yes</TranslatedText>
          </Decode>
        </CodeListItem>
      </CodeList>
      <CodeList DataType="text" Name="Y_BLANK" OID="Y_BLANK">
        <CodeListItem CodedValue="Y" def:Rank="1">
          <Decode>
            <TranslatedText xml:lang="en">Yes</TranslatedText>
          </Decode>
        </CodeListItem>
      </CodeList>
      <CodeList DataType="text" Name="ADVERSE EVENT DICTIONARY" OID="AEDICT">
        <ExternalCodeList Dictionary="MEDDRA" Version="8.0"/>
      </CodeList>
    </MetaDataVersion>
  </Study>
</ODM>
